session_id,timestamp_sec,accel_x,accel_y,accel_z,gyro_x,gyro_y,gyro_z,speed_kmh
190_23rd_St-2026-04-09_01-22-17,0.0,0.2148633785165846,0.113867786720395,0.1632329983919858,0.0439784564077854,-0.2395967543125152,0.1640301048755645,0.0
190_23rd_St-2026-04-09_01-22-17,0.0099619140625,0.0626556320078671,0.0744458769142627,0.2775005980849266,0.00843271240592,-0.1902569085359573,0.1877018809318542,0.0
190_23rd_St-2026-04-09_01-22-17,0.019924072265625002,0.0858998756036162,0.0764805976122617,0.2807587230980396,-0.0364117436110973,-0.1229955852031707,0.2109848707914352,0.0
190_23rd_St-2026-04-09_01-22-17,0.029885986328124996,-0.0728619687236845,0.0594441226154565,0.1304787297815084,-0.073636345565319,-0.0635351911187172,0.2264509201049804,0.0
190_23rd_St-2026-04-09_01-22-17,0.039848876953124994,-0.140380822853744,0.0571650717675685,0.0727215373396873,-0.0975962504744529,-0.0142030334100127,0.2339082211256027,0.0
190_23rd_St-2026-04-09_01-22-17,0.049811279296875004,-0.2197206092894077,0.055144379594922,0.0186123460114002,-0.1070115864276886,0.025666618719697,0.2313097715377807,0.0
190_23rd_St-2026-04-09_01-22-17,0.05977294921875,-0.2697267492130398,0.0544312628895044,-0.0579097526550293,-0.1055225804448127,0.0473248101770877,0.215309664607048,0.0
190_23rd_St-2026-04-09_01-22-17,0.069735107421875,-0.2630573544517159,0.0497585949033498,-0.053529345613718,-0.0852838903665542,0.0572394914925098,0.1941545754671096,0.0
190_23rd_St-2026-04-09_01-22-17,0.07969702148437499,-0.2467978551767766,0.063273910036683,-0.1787713437855243,-0.0429632142186164,0.0495057813823223,0.1735224723815918,0.0
190_23rd_St-2026-04-09_01-22-17,0.08965893554687498,-0.2301853046804666,0.0617021306753158,-0.1750356643885374,0.0119399800896644,0.0266060587018728,0.1503931879997253,0.0
190_23rd_St-2026-04-09_01-22-17,0.09962182617187498,-0.2236551722593605,0.0670066668242216,-0.1773480329841375,0.0654643774032592,0.0001007362734526,0.1361351162195205,0.0
190_23rd_St-2026-04-09_01-22-17,0.10958422851562499,-0.136494044548273,-0.0293687178254127,0.003258125013113,0.1068680137395858,-0.020142750814557,0.1304114609956741,0.0
190_23rd_St-2026-04-09_01-22-17,0.11954589843749999,-0.1274511986538767,-0.0178448687702417,-0.0027776480197906,0.1299028843641281,-0.0295318663120269,0.1310949772596359,0.0
190_23rd_St-2026-04-09_01-22-17,0.12950805664062498,-0.1023819315880537,-0.1485994928836822,0.1824766280442476,0.1349485069513321,-0.0299627669155597,0.1278872042894363,0.0
190_23rd_St-2026-04-09_01-22-17,0.13947021484375,-0.1318213765621185,-0.2037543938726186,0.214663910421729,0.1243817582726478,-0.0381068363785743,0.1232832372188568,0.0
190_23rd_St-2026-04-09_01-22-17,0.149432861328125,-0.1602571974515914,-0.2577799985706806,0.2319102287769317,0.1005970686674118,-0.0466366745531559,0.110360249876976,0.0
190_23rd_St-2026-04-09_01-22-17,0.15939501953125,-0.1649757504060864,-0.2527875971108675,0.1939338416039943,0.0677279084920883,-0.0572777576744556,0.0950776487588882,0.0
190_23rd_St-2026-04-09_01-22-17,0.169357177734375,-0.1553396147936582,-0.2476625091820955,0.1921954735040664,0.0286180526018142,-0.063413418829441,0.0824896842241287,0.0
190_23rd_St-2026-04-09_01-22-17,0.17931884765625,-0.2254202822357416,-0.2539654087185859,0.0436234531491994,-0.0065445210784673,-0.057097390294075,0.0738974437117576,0.0
190_23rd_St-2026-04-09_01-22-17,0.189281005859375,-0.2173940660379827,-0.2543675597786903,0.0453249963700771,-0.0273483358323574,-0.0453776195645332,0.0687247887253761,0.0
190_23rd_St-2026-04-09_01-22-17,0.1992431640625,-0.3180696320995688,-0.1821621552675962,-0.1572258669316768,-0.0246028508991003,-0.0278385411947965,0.0616729073226451,0.0
190_23rd_St-2026-04-09_01-22-17,0.2092060546875,-0.344086116887629,-0.1721300060749054,-0.1913707131177187,-0.0066198552958667,-0.0079945297911763,0.0444489158689975,0.0
190_23rd_St-2026-04-09_01-22-17,0.21916796874999997,-0.3421630398705601,-0.1712713434189557,-0.1916150432676076,0.0169288627803325,0.00346983037889,0.0228001251816749,0.0
190_23rd_St-2026-04-09_01-22-17,0.22913012695312499,-0.3237197668157517,-0.2075496945023536,-0.1537842020452022,0.0407796017825603,0.0096992310136556,-0.0022509000264108,0.0
190_23rd_St-2026-04-09_01-22-17,0.23909228515625,-0.2801600265525281,-0.2264227372765541,-0.0825812525749206,0.062825508415699,0.0166182555258274,-0.0184442438185215,0.0
190_23rd_St-2026-04-09_01-22-17,0.24905395507812497,-0.2200746834240853,-0.2086982800155878,-0.0125543611466884,0.0751096084713935,0.0232513900846242,-0.0335534177720546,0.0
190_23rd_St-2026-04-09_01-22-17,0.259015869140625,-0.165066059038043,-0.1858861442267894,0.0616623831868171,0.0833331421017646,0.0250676218420267,-0.0483311712741851,0.0
190_23rd_St-2026-04-09_01-22-17,0.26897900390625,-0.1699352725096047,-0.1799403875648975,0.0567430469632148,0.0839326232671737,0.0231341663748025,-0.0608605444431304,0.0
190_23rd_St-2026-04-09_01-22-17,0.27894091796875004,-0.0708101507604122,-0.1496779357701539,0.1436678817003965,0.0754285976290702,0.0222220160067081,-0.0683317333459854,0.0
190_23rd_St-2026-04-09_01-22-17,0.28890283203125,-0.0327577757418155,-0.128041858023405,0.1568576181411743,0.0648196265101432,0.027321171015501,-0.0731653720140457,0.0
190_23rd_St-2026-04-09_01-22-17,0.298865234375,-0.026794483423233,-0.0932628055870533,0.1369096396118402,0.0534683726727962,0.0282153971493244,-0.0754110217094421,0.0
190_23rd_St-2026-04-09_01-22-17,0.30882690429687504,-0.0147585931926965,-0.0943944399654865,0.1286100133001804,0.0407200865447521,0.0289994329214096,-0.0723025798797607,0.0
190_23rd_St-2026-04-09_01-22-17,0.3187890625,-0.0132975807294249,-0.0331406375795602,0.1189841068208217,0.0330186858773231,0.0370411686599254,-0.068142756819725,0.0
190_23rd_St-2026-04-09_01-22-17,0.32875219726562505,-0.0322393048256635,0.0045259529918432,0.1210802023172378,0.0292662885040044,0.0413541570305824,-0.0641043335199356,0.0
190_23rd_St-2026-04-09_01-22-17,0.338714111328125,-0.0052276715204119,0.0036503392010927,0.1249240182638168,0.0339161939918994,0.0450720936059951,-0.0589101985096931,0.0
190_23rd_St-2026-04-09_01-22-17,0.34867578125000004,0.0277815947644412,0.0186532625436782,0.1434814192175865,0.0423544198274612,0.04434584826231,-0.0521191395819187,0.0
190_23rd_St-2026-04-09_01-22-17,0.35863818359375005,0.0291626738592982,0.0239069452881813,0.1537953079611063,0.0565516799688339,0.0402442701160907,-0.0475103929638862,0.0
190_23rd_St-2026-04-09_01-22-17,0.368599853515625,0.0239975461810827,0.0282177942246198,0.1498655672967433,0.0687918365001678,0.0251848921179771,-0.0436354950070381,0.0
190_23rd_St-2026-04-09_01-22-17,0.378562744140625,-0.005517448247224,0.0252320564121007,0.1290180095791816,0.0773084387183189,-0.0017869910225272,-0.0409797616302967,0.0
190_23rd_St-2026-04-09_01-22-17,0.38852514648437503,-0.0337969095312058,-0.0048766661256551,0.1393283911913633,0.0835000202059745,-0.0296061038970947,-0.0451939478516578,0.0
190_23rd_St-2026-04-09_01-22-17,0.398487060546875,-0.033310733449459,0.0012450316250324,0.1351841309934854,0.0873901844024658,-0.0482751876115798,-0.053749319165945,0.0
190_23rd_St-2026-04-09_01-22-17,0.408448974609375,-0.1424153974212706,0.0317903920143842,0.136022335383296,0.0891593173146247,-0.0560153983533382,-0.0656142383813858,0.0
190_23rd_St-2026-04-09_01-22-17,0.41841113281250003,-0.141902625593543,0.0377530998110771,0.1319797819942235,0.089063361287117,-0.0612445957958698,-0.0820097401738166,0.0
190_23rd_St-2026-04-09_01-22-17,0.428373046875,-0.1760208760336041,-0.0171814364254474,0.1069850414693355,0.0906069278717041,-0.0599881149828434,-0.0954765528440475,0.0
190_23rd_St-2026-04-09_01-22-17,0.4383359375,-0.2077471167705953,-0.0346241541355848,0.1457581319779157,0.0913171246647834,-0.0575312934815883,-0.1093218326568603,0.0
190_23rd_St-2026-04-09_01-22-17,0.448298095703125,-0.2514760761208832,-0.0500765748113393,0.2172416519552469,0.0885905772447586,-0.0447393283247947,-0.1208400055766105,0.0
190_23rd_St-2026-04-09_01-22-17,0.45826000976562503,-0.2790516269192099,-0.0677507631897926,0.2767576707631349,0.075495146214962,-0.0171104930341243,-0.1327351629734039,0.0
190_23rd_St-2026-04-09_01-22-17,0.46822192382812505,-0.2863198643565178,-0.0645423225373029,0.2731406493097543,0.0563502162694931,0.0048685763031244,-0.1419062912464141,0.0
190_23rd_St-2026-04-09_01-22-17,0.47818408203125,-0.252418325407058,-0.0787456199347972,0.3106026572197675,0.0345517136156559,0.0127870868891477,-0.1463122218847274,0.0
190_23rd_St-2026-04-09_01-22-17,0.488146240234375,-0.2313068560563027,-0.0965700304388999,0.322726225733757,0.016612397506833,0.0039155641570687,-0.1514300256967544,0.0
190_23rd_St-2026-04-09_01-22-17,0.49810913085937497,-0.2478045480012893,-0.0799409671992063,0.2327285594224929,0.0028926567174494,-0.0232318360358476,-0.1557855457067489,0.0
190_23rd_St-2026-04-09_01-22-17,0.5080710449218749,-0.2926392766363919,-0.0536947653084993,0.1453168179512023,0.0017664057668298,-0.0630154758691787,-0.1600114405155182,0.0
190_23rd_St-2026-04-09_01-22-17,0.518033203125,-0.2946832035541534,-0.0556868159085512,0.1463140122950077,0.014541539363563,-0.1104360297322273,-0.1635570377111435,0.0
190_23rd_St-2026-04-09_01-22-17,0.5279951171874999,-0.3594657645881176,-0.0431628499001264,-0.0561965189963579,0.053137931972742,-0.157880499958992,-0.1620462238788604,0.0
190_23rd_St-2026-04-09_01-22-17,0.537956787109375,-0.3938463192261755,-0.0632452684640884,-0.0551093082815408,0.0900678858160972,-0.2005035877227783,-0.1596770137548446,0.0
190_23rd_St-2026-04-09_01-22-17,0.547919189453125,-0.4222755642443895,-0.0722977589696645,-0.0102449151605367,0.1315005421638488,-0.2305168807506561,-0.1595025807619094,0.0
190_23rd_St-2026-04-09_01-22-17,0.557882080078125,-0.4827110359847545,-0.0730471160322427,0.0400105233490467,0.1669887006282806,-0.2465813905000686,-0.1547987163066864,0.0
190_23rd_St-2026-04-09_01-22-17,0.5678439941406249,-0.4712603982962667,-0.0611754764527082,0.033836803150177,0.1899363547563552,-0.2588633596897125,-0.1513829529285431,0.0
190_23rd_St-2026-04-09_01-22-17,0.57780615234375,-0.5872220885559916,-0.0604383943498134,0.1285761110305786,0.200843870639801,-0.2688916325569153,-0.1462443768978119,0.0
190_23rd_St-2026-04-09_01-22-17,0.58776806640625,-0.5737047275960445,-0.0464279891759157,0.1211900924324989,0.2067765891551971,-0.2774110734462738,-0.1414704024791717,0.0
190_23rd_St-2026-04-09_01-22-17,0.597729736328125,-0.6300900471627712,-0.0388999317586421,0.1263052434891462,0.2111413180828094,-0.301621675491333,-0.132860854268074,0.0
190_23rd_St-2026-04-09_01-22-17,0.607692138671875,-0.6797749923080205,0.0103033673495054,0.1207937865912914,0.219765692949295,-0.337746113538742,-0.1211099252104759,0.0
190_23rd_St-2026-04-09_01-22-17,0.617655029296875,-0.7225267771892249,0.0787643246352672,0.1113923365175724,0.237110823392868,-0.3695142269134521,-0.1094539687037468,0.0
190_23rd_St-2026-04-09_01-22-17,0.627616943359375,-0.7239170625038445,0.1221557225942611,0.1516302388817071,0.2681954801082611,-0.3865816295146942,-0.0973464399576187,0.0
190_23rd_St-2026-04-09_01-22-17,0.6375791015625,-0.7262304540127515,0.1681266156524419,0.204762694132328,0.3114603459835052,-0.3799044489860534,-0.0814943239092826,0.0
190_23rd_St-2026-04-09_01-22-17,0.647541015625,-0.7358163207426667,0.1919061351686716,0.2709106983006,0.3600577116012573,-0.3640008568763733,-0.067494623363018,0.0
190_23rd_St-2026-04-09_01-22-17,0.6575029296875,-0.6858788621410727,0.1783569177657365,0.3654804948329925,0.4094621539115906,-0.3501488268375397,-0.047958567738533,0.0
190_23rd_St-2026-04-09_01-22-17,0.667466064453125,-0.6261838335044682,0.1486094297558069,0.512706945797801,0.4459482729434967,-0.3513603210449219,-0.022004997357726,0.0
190_23rd_St-2026-04-09_01-22-17,0.677427978515625,-0.5741664998888969,0.0646148032516241,0.638525867074728,0.4645512700080871,-0.3798866868019104,0.0093099037185311,0.0
190_23rd_St-2026-04-09_01-22-17,0.6873901367187499,-0.5416641602128743,0.1009802480965852,0.6164946525305509,0.4605498611927032,-0.4180910885334015,0.044528342783451,0.0
190_23rd_St-2026-04-09_01-22-17,0.69735205078125,-0.4816378537952899,-0.1075590419650077,0.8621534206748008,0.4305046498775482,-0.4729872345924377,0.0757499039173126,0.0
190_23rd_St-2026-04-09_01-22-17,0.70731396484375,-0.4733803861249238,-0.2117307795792818,0.9117150317013264,0.3928179740905761,-0.5227339863777161,0.0914140865206718,0.0
190_23rd_St-2026-04-09_01-22-17,0.7172761230468749,-0.4610330918576568,-0.3094885584980249,0.8944815728276968,0.3536832928657532,-0.5713586211204529,0.0914925262331962,0.0
190_23rd_St-2026-04-09_01-22-17,0.7272390136718749,-0.4634300699967891,-0.3492904075324535,0.8800672630280256,0.3140032589435577,-0.6214784979820251,0.0719273462891578,0.0
190_23rd_St-2026-04-09_01-22-17,0.737200927734375,-0.4310436848506331,-0.3540180205762386,0.8342179505228996,0.2857559025287628,-0.6628282070159912,0.0409849807620048,0.0
190_23rd_St-2026-04-09_01-22-17,0.7471630859374999,-0.3645791620790958,-0.3685807989358902,0.8071984261721372,0.2586659491062164,-0.6976040005683899,0.0028357321862131,0.0
190_23rd_St-2026-04-09_01-22-17,0.7571249999999999,-0.2902103689890354,-0.3837000421345233,0.8169991046965122,0.2317060232162475,-0.714805006980896,-0.031143732368946,0.0
190_23rd_St-2026-04-09_01-22-17,0.767087158203125,-0.2105723302591592,-0.3875029415488243,0.7731132012188434,0.2075807154178619,-0.70560622215271,-0.0642007514834404,0.0
190_23rd_St-2026-04-09_01-22-17,0.7770490722656249,-0.1563603361435234,-0.4097574434548616,0.6921025589615106,0.1808221042156219,-0.7017583847045898,-0.0907277539372444,0.0
190_23rd_St-2026-04-09_01-22-17,0.78701220703125,-0.1127954082485288,-0.470723661071062,0.6492430759221315,0.1391540169715881,-0.7146224975585938,-0.1088351160287857,0.0
190_23rd_St-2026-04-09_01-22-17,0.7969738769531249,-0.0715954559192061,-0.5364250905156135,0.5740519335985184,0.0975105315446853,-0.7135315537452698,-0.1169154345989227,0.0
190_23rd_St-2026-04-09_01-22-17,0.806935546875,-0.0361925724960863,-0.580546556314826,0.4401204330146312,0.0573868118226528,-0.719651460647583,-0.1152328476309776,0.0
190_23rd_St-2026-04-09_01-22-17,0.8168974609374999,0.0123567196827381,-0.5781266356915236,0.4421902250260114,0.0259545743465423,-0.7345340847969055,-0.1118436977267265,0.0
190_23rd_St-2026-04-09_01-22-17,0.8268598632812499,-0.0322165084719657,-0.5237485642939805,0.131121119338274,0.0199677888303995,-0.7497191429138184,-0.1148775741457939,0.0
190_23rd_St-2026-04-09_01-22-17,0.8368215332031249,-0.0163641286931931,-0.4057452852040529,0.047220016336441,0.0313679836690425,-0.7564878463745117,-0.1333508491516113,0.0
190_23rd_St-2026-04-09_01-22-17,0.84678466796875,0.0317392828816548,-0.3541466153919697,0.0942798736751079,0.0374626293778419,-0.7693088054656982,-0.1618397533893585,0.0
190_23rd_St-2026-04-09_01-22-17,0.8567468261718749,0.1801377002352848,-0.390685078716278,0.1549123292922973,0.0434974543750286,-0.7338160872459412,-0.183925911784172,0.0
190_23rd_St-2026-04-09_01-22-17,0.86670849609375,0.3375532810527831,-0.4261597122013568,0.1063432364344596,0.0538249276578426,-0.672774612903595,-0.191716730594635,0.0
190_23rd_St-2026-04-09_01-22-17,0.876670654296875,0.4719496957346796,-0.4222048370957374,0.0609025047302246,0.0639479607343673,-0.6258501410484314,-0.1792115867137909,0.0
190_23rd_St-2026-04-09_01-22-17,0.8866328124999999,0.5388061039006338,-0.3795283094078302,0.1197182663142681,0.0770395249128341,-0.5812312364578247,-0.1529464274644851,0.0
190_23rd_St-2026-04-09_01-22-17,0.896594482421875,0.5948550676524639,-0.3317302009224891,0.137911510130763,0.0803124234080314,-0.5335199236869812,-0.1157717853784561,0.0
190_23rd_St-2026-04-09_01-22-17,0.906557373046875,0.6360186334941536,-0.3688414956986904,0.1214274083197116,0.0544142462313175,-0.4956244826316833,-0.0772310495376586,0.0
190_23rd_St-2026-04-09_01-22-17,0.916519775390625,0.6083933252699673,-0.5029126970142126,0.0790057321757078,-0.0079201692715287,-0.4805194735527038,-0.0411419495940208,0.0
190_23rd_St-2026-04-09_01-22-17,0.9264816894531249,0.604826645764336,-0.653462739443779,0.0665928253263235,-0.0740081146359443,-0.4396522045135498,-0.012655446305871,0.0
190_23rd_St-2026-04-09_01-22-17,0.936443603515625,0.5936700956515968,-0.6527887857049703,-0.1120733045190572,-0.1246801018714904,-0.3790400326251983,-0.0005952261853963,0.0
190_23rd_St-2026-04-09_01-22-17,0.9464057617187499,0.5986268778087571,-0.5529319886803626,-0.2460579965949058,-0.1573155522346496,-0.3339130282402038,-0.012787977233529,0.0
190_23rd_St-2026-04-09_01-22-17,0.9563676757812499,0.5924269637227058,-0.4647966091096401,-0.2818634694695472,-0.1642428934574127,-0.2969256639480591,-0.0411513671278953,0.0
190_23rd_St-2026-04-09_01-22-17,0.9663305664062499,0.6119248238643631,-0.4330494717150926,-0.2724234409511089,-0.1462266147136688,-0.2482404261827469,-0.0713931620121002,0.0
190_23rd_St-2026-04-09_01-22-17,0.976292724609375,0.6336425520125776,-0.4081166905105113,-0.2521931383490562,-0.1055612415075302,-0.1922155320644378,-0.0881046652793884,0.0
190_23rd_St-2026-04-09_01-22-17,0.986254638671875,0.667042132789269,-0.381910236108303,-0.226890939310193,-0.0601351708173751,-0.1509991139173507,-0.0782243385910987,0.0
190_23rd_St-2026-04-09_01-22-17,0.996216552734375,0.6432317797433584,-0.3346592401117086,-0.1974450645953416,-0.0079868398606777,-0.1352272927761078,-0.0530183017253875,0.0
190_23rd_St-2026-04-09_01-22-17,1.0061787109375,0.5913124266095459,-0.2685375394284725,-0.1085270102143287,0.0400182381272316,-0.1309065818786621,-0.0211791470646858,0.0
190_23rd_St-2026-04-09_01-22-17,1.016140869140625,0.4898627343703061,-0.1952852562129497,0.0188338798075914,0.0776091068983078,-0.1269481033086776,0.0017338787438347,0.0
190_23rd_St-2026-04-09_01-22-17,1.026103759765625,0.4199272840851917,-0.1120890866100788,0.1342109020471572,0.1038194075226783,-0.1048790216445922,0.0159748662263155,0.0
190_23rd_St-2026-04-09_01-22-17,1.036065673828125,0.3861338451527059,-0.0448375051140785,0.2125970410197973,0.1229916810989379,-0.0742740705609321,0.0216029454022645,0.0
190_23rd_St-2026-04-09_01-22-17,1.0460278320312502,0.4069638306809589,-0.028290274938941,0.2849368855655193,0.1419219523668289,-0.0332491360604763,0.0180566813796758,0.0
190_23rd_St-2026-04-09_01-22-17,1.0559897460937502,0.5113982378194109,-0.0047229368686676,0.4276642715454101,0.1679413616657257,0.0260039940476417,0.0179883204400539,0.0
190_23rd_St-2026-04-09_01-22-17,1.0659514160156252,0.6508303451135754,-0.0315811331778764,0.5872451771706342,0.199390098452568,0.1040918678045272,0.0238901507109403,0.0
190_23rd_St-2026-04-09_01-22-17,1.07591455078125,0.857067203451693,-0.1064163016706705,0.749722973281145,0.2263214737176895,0.1922184228897094,0.0387812666594982,0.0
190_23rd_St-2026-04-09_01-22-17,1.085876708984375,1.0327391929823904,-0.2527367437064647,0.8424965340465307,0.2403936237096786,0.2588216662406921,0.0615369156002998,0.0
190_23rd_St-2026-04-09_01-22-17,1.09583837890625,1.134619239462912,-0.3872510126143694,0.8550327750146388,0.2338900864124298,0.2684880495071411,0.0975684374570846,0.0
190_23rd_St-2026-04-09_01-22-17,1.1058007812500001,1.1715244172077626,-0.4970055187970399,0.8267536059916019,0.2009739428758621,0.2149233669042587,0.1271724104881286,0.0
190_23rd_St-2026-04-09_01-22-17,1.1157626953125002,1.1263665940981358,-0.6203536660462617,0.7727560583442449,0.1360922306776046,0.1189072951674461,0.1447091251611709,0.0
190_23rd_St-2026-04-09_01-22-17,1.1257246093750002,1.0941399295583367,-0.6810784761220217,0.6318833603203297,0.0472092255949974,0.0235679950565099,0.1368120461702346,0.0
190_23rd_St-2026-04-09_01-22-17,1.135687744140625,1.0116022238641975,-0.6238485224246978,0.4056546843111515,-0.041997842490673,-0.069325141608715,0.1049613133072853,0.0
190_23rd_St-2026-04-09_01-22-17,1.145649658203125,0.8984406126517802,-0.4915712187886237,0.2323322535812854,-0.1224186494946479,-0.1425860375165939,0.0502924770116806,0.0
190_23rd_St-2026-04-09_01-22-17,1.155611328125,0.7882639355342834,-0.3425233976155519,0.0816150378912687,-0.1815637201070785,-0.1714224815368652,-0.012588751502335,0.0
190_23rd_St-2026-04-09_01-22-17,1.1655737304687501,0.7436958219461143,-0.2481348028689622,-0.0949088192284107,-0.2140694707632064,-0.1696173995733261,-0.0679090023040771,0.0
190_23rd_St-2026-04-09_01-22-17,1.1755356445312501,0.7610645976372062,-0.1874216832309961,-0.2475350834101438,-0.2240072786808014,-0.1477570533752441,-0.0982033982872963,0.0
190_23rd_St-2026-04-09_01-22-17,1.1854975585937502,0.8001236654803157,-0.1290595106333494,-0.3122100924164057,-0.2273639291524887,-0.1166164502501487,-0.1071928963065147,0.0
190_23rd_St-2026-04-09_01-22-17,1.195460693359375,0.8638535025909543,-0.0853279209345579,-0.2613315535724163,-0.2432675212621688,-0.0725439339876174,-0.1002814546227455,0.0
190_23rd_St-2026-04-09_01-22-17,1.205422607421875,0.9608312370479106,0.0006347907721996,-0.2543634681254625,-0.26067715883255,-0.0010124903637915,-0.0733728781342506,0.0
190_23rd_St-2026-04-09_01-22-17,1.215384765625,1.0544005513008683,0.116253220552206,-0.2195265480220317,-0.281561940908432,0.0624800510704517,-0.0379322841763496,0.0
190_23rd_St-2026-04-09_01-22-17,1.2253466796875,1.1081211817029863,0.2073889509826898,-0.1735100622564554,-0.3006157875061035,0.1186802089214325,0.0058863009326159,0.0
190_23rd_St-2026-04-09_01-22-17,1.2353085937500001,1.160333088042587,0.2439355976134538,-0.1495055018126964,-0.3171423673629761,0.1811865270137787,0.0543067939579486,0.0
190_23rd_St-2026-04-09_01-22-17,1.245270751953125,1.231375732384622,0.2209036815941333,-0.1498795958220958,-0.3189490437507629,0.2479096204042434,0.1071564331650734,0.0
190_23rd_St-2026-04-09_01-22-17,1.255233642578125,1.2938828958325088,0.1861743135184049,-0.1465069045186042,-0.2993343770503998,0.3087223470211029,0.1656035482883453,0.0
190_23rd_St-2026-04-09_01-22-17,1.265195556640625,1.2797846662446857,0.1645095941990614,-0.1299228494644164,-0.2593571245670318,0.3553484380245209,0.2261329293251037,0.0
190_23rd_St-2026-04-09_01-22-17,1.27515771484375,1.3961616593070327,0.0956365489810705,-0.0607382540792226,-0.209068551659584,0.3778518438339233,0.283092588186264,0.0
190_23rd_St-2026-04-09_01-22-17,1.28511962890625,1.385072110015899,0.0814303289741277,-0.0500146154910325,-0.1627857387065887,0.3731521666049957,0.3333573639392853,0.0
190_23rd_St-2026-04-09_01-22-17,1.2950817871093752,1.5033127049930393,-0.0796317551195621,0.0075169515013694,-0.1248086392879486,0.3379027247428894,0.375542938709259,0.0
190_23rd_St-2026-04-09_01-22-17,1.3050437011718752,1.5095783412590622,-0.1929196961253881,-0.0281844764769077,-0.1009552329778671,0.2797179818153381,0.4067471921443939,0.0
190_23rd_St-2026-04-09_01-22-17,1.3150068359375,1.419028886283934,-0.2552472652226686,-0.1011199488282203,-0.0874390453100204,0.2064103335142135,0.4280374944210052,0.0
190_23rd_St-2026-04-09_01-22-17,1.324968505859375,1.2545797901004552,-0.2767050637930631,-0.2269219189703464,-0.0759104862809181,0.1263173669576645,0.4298170208930969,0.0
190_23rd_St-2026-04-09_01-22-17,1.3349306640625,1.2722393654316664,-0.2816892819464207,-0.2230290031850338,-0.0563023835420608,0.0594259984791278,0.4144717454910278,0.0
190_23rd_St-2026-04-09_01-22-17,1.3448928222656251,0.8793856374394148,-0.2294464690119028,-0.451159713423252,-0.0258869528770446,0.0196210630238056,0.3859615325927734,0.0
190_23rd_St-2026-04-09_01-22-17,1.3548547363281251,0.7337042239595204,-0.1751554913759231,-0.5339449641376733,0.0111618312075734,0.0112973060458898,0.3479344248771667,0.0
190_23rd_St-2026-04-09_01-22-17,1.3648166503906252,0.6627259500905871,-0.1690875696390867,-0.6065840838909149,0.052108995616436,0.0271196775138378,0.3153953850269317,0.0
190_23rd_St-2026-04-09_01-22-17,1.37477978515625,0.6131765409585088,-0.1585492244899272,-0.613637509533763,0.095393106341362,0.0645048841834068,0.2969228327274322,0.0
190_23rd_St-2026-04-09_01-22-17,1.38474169921875,0.5874575047470629,-0.119461076682806,-0.56121758646667,0.1377077996730804,0.1300319582223892,0.2913096845149994,0.0
190_23rd_St-2026-04-09_01-22-17,1.39470361328125,0.5892179750809445,-0.0940139162153005,-0.4839665890038013,0.1724697053432464,0.1977370381355285,0.2922273874282837,0.0
190_23rd_St-2026-04-09_01-22-17,1.40466552734375,0.5894924081081524,-0.1101262621045112,-0.4175187251061201,0.2044092565774917,0.252698540687561,0.299779862165451,0.0
190_23rd_St-2026-04-09_01-22-17,1.4146276855468751,0.5995786621082574,-0.1284194591641426,-0.3379033365994691,0.2333572804927826,0.2856944501399994,0.308156818151474,0.0
190_23rd_St-2026-04-09_01-22-17,1.4245895996093751,0.6279482858937233,-0.1562041226685047,-0.2960802108705043,0.2595654428005218,0.2936506569385528,0.3103091716766357,0.0
190_23rd_St-2026-04-09_01-22-17,1.434552734375,0.624310221652314,-0.1353179865062236,-0.3121656687527895,0.2831708192825317,0.2746670246124267,0.3058641254901886,0.0
190_23rd_St-2026-04-09_01-22-17,1.4445146484375,0.5899246255129575,-0.1362567286610603,-0.1820686317652463,0.3042313456535339,0.2436571568250656,0.2900417447090149,0.0
190_23rd_St-2026-04-09_01-22-17,1.4544765625,0.5499101201085373,-0.0956535001158714,-0.1376034670948982,0.3233816623687744,0.2120378613471985,0.2614648640155792,0.0
190_23rd_St-2026-04-09_01-22-17,1.464438720703125,0.5334796847134828,-0.056992637810111,-0.1205441957443952,0.336184024810791,0.1707085371017456,0.2277234196662902,0.0
190_23rd_St-2026-04-09_01-22-17,1.474400634765625,0.5164184406016021,-0.0234562789112329,-0.1188829845339059,0.339200884103775,0.1199699267745018,0.1861928403377533,0.0
190_23rd_St-2026-04-09_01-22-17,1.4843625488281251,0.5086224894957616,0.005302198061347,-0.0879910026639699,0.3261961340904236,0.069094493985176,0.1423087418079376,0.0
190_23rd_St-2026-04-09_01-22-17,1.4943256835937502,0.47816524578128,0.0240881470739841,-0.0605102905422449,0.3121380805969238,0.0394661165773868,0.1004586219787597,0.0
190_23rd_St-2026-04-09_01-22-17,1.504287841796875,0.4491185264518484,0.0365337871491909,-0.0185211605966091,0.2963495254516601,0.0442251861095428,0.0641948953270912,0.0
190_23rd_St-2026-04-09_01-22-17,1.51424951171875,0.4763205677626654,0.0566337413698434,-0.0217687642157077,0.2818963825702667,0.064791701734066,0.0363466404378414,0.0
190_23rd_St-2026-04-09_01-22-17,1.524211669921875,0.5210204910369589,0.0901432122617959,-0.0387462025016546,0.264541894197464,0.0876149982213974,0.0172879956662654,0.0
190_23rd_St-2026-04-09_01-22-17,1.5341738281250001,0.5149254986301064,0.1094125608772039,-0.054538230395317,0.2475835680961609,0.0925394520163536,0.0067545045167207,0.0
190_23rd_St-2026-04-09_01-22-17,1.5441357421875002,0.6381462201073765,0.0849444745749235,-0.151665894716978,0.2340805530548095,0.0783804953098297,0.0025680151302367,0.0
190_23rd_St-2026-04-09_01-22-17,1.5540986328125002,0.6976359354302286,0.0802151079654693,-0.2139993090331554,0.2269758135080337,0.0585819333791732,-0.0026023813989013,0.0
190_23rd_St-2026-04-09_01-22-17,1.564060791015625,0.725117085943371,0.1165004733115434,-0.2615250303179025,0.2216934412717819,0.0432165600359439,-0.0095226056873798,0.0
190_23rd_St-2026-04-09_01-22-17,1.574022705078125,0.7766828763991593,0.1629372303158044,-0.2597656194299459,0.2183202505111694,0.0280524753034114,-0.0238982196897268,0.0
190_23rd_St-2026-04-09_01-22-17,1.583984619140625,0.8363491903979331,0.1772925034046173,-0.2833557538539171,0.2134668976068496,0.0217109564691782,-0.0362643413245677,0.0
190_23rd_St-2026-04-09_01-22-17,1.5939467773437501,0.853421978817135,0.195696759623289,-0.2928700166523456,0.2079628258943557,0.0239541754126548,-0.0449131950736045,0.0
190_23rd_St-2026-04-09_01-22-17,1.6039096679687501,0.8481712186820805,0.2309019285172223,-0.2356821485310792,0.1978188455104828,0.0399059765040874,-0.0519639141857624,0.0
190_23rd_St-2026-04-09_01-22-17,1.6138715820312501,0.8569648390557616,0.2115741277128457,-0.1879115125745535,0.1820300072431564,0.0723212733864784,-0.0541462861001491,0.0
190_23rd_St-2026-04-09_01-22-17,1.623833740234375,1.0604583900351077,0.0920873320668935,-0.1560720207214355,0.1612256616353988,0.1325539946556091,-0.05203253403306,0.0
190_23rd_St-2026-04-09_01-22-17,1.6337958984375,1.0434152661018072,0.1033113213926553,-0.1657756686121225,0.141169399023056,0.2650036513805389,-0.0293205678462982,0.0
190_23rd_St-2026-04-09_01-22-17,1.643757568359375,1.457484435275942,-0.3941600613504648,-0.3312339418381452,0.1173479557037353,0.3644615113735199,0.0196554977446794,0.0
190_23rd_St-2026-04-09_01-22-17,1.653719482421875,1.3473751243062315,-0.2191431016623973,-0.4375736711412668,0.074191577732563,0.3340904414653778,0.0628919899463653,0.0
190_23rd_St-2026-04-09_01-22-17,1.6636828613281252,1.3067396009266377,-0.1379828218013048,-0.3772761465668678,0.013337017968297,0.2971436083316803,0.0882173180580139,0.0
190_23rd_St-2026-04-09_01-22-17,1.6736445312500001,1.370474260342866,-0.1826683512240648,-0.4570557857245206,-0.0455135889351367,0.285603404045105,0.099466472864151,0.0
190_23rd_St-2026-04-09_01-22-17,1.6836064453125001,1.356223908933252,-0.1878197426378726,-0.4528828839540481,-0.0968763753771781,0.2814531326293945,0.1143780425190925,0.0
190_23rd_St-2026-04-09_01-22-17,1.69356884765625,1.5243496478028595,-0.2756400649100542,-0.8008329827934503,-0.1544867157936096,0.275634765625,0.130271628499031,0.0
190_23rd_St-2026-04-09_01-22-17,1.703530517578125,1.5128870274156332,-0.2893424270480871,-0.7893371907889842,-0.2213048934936523,0.2764773964881897,0.1499438732862472,0.0
190_23rd_St-2026-04-09_01-22-17,1.71349267578125,1.2441396446287631,-0.0207733234375715,-0.9314613501787186,-0.2802479863166809,0.327303409576416,0.169261485338211,0.0
190_23rd_St-2026-04-09_01-22-17,1.7234558105468751,1.135343900475651,0.066354924917221,-1.0864531744480133,-0.3079174160957336,0.3978923559188843,0.1988545209169387,0.0
190_23rd_St-2026-04-09_01-22-17,1.7334177246093752,1.0848171707440166,0.0661339756429195,-1.2515449524492024,-0.2999629974365234,0.4558050036430359,0.242910161614418,0.0
190_23rd_St-2026-04-09_01-22-17,1.7433796386718752,1.04203053374514,0.0485375286757946,-1.3617933796286583,-0.2522178292274475,0.4921576976776123,0.3095653355121612,0.0
190_23rd_St-2026-04-09_01-22-17,1.753341796875,0.9623387920666484,0.0967214216083288,-1.465184195998311,-0.1646677404642105,0.5059281587600708,0.3856965601444244,0.0
190_23rd_St-2026-04-09_01-22-17,1.763303466796875,0.8664361394952982,0.1820195319265127,-1.4744558822125196,-0.0350418351590633,0.4885946810245514,0.4553605914115906,0.0
190_23rd_St-2026-04-09_01-22-17,1.773265625,0.8611007698167115,0.1864922934263944,-1.4783692562639712,0.1223253235220909,0.4622671008110046,0.5148135423660278,0.0
190_23rd_St-2026-04-09_01-22-17,1.7832287597656251,0.5427793549131602,0.2898281647384166,-1.1521849990308284,0.2889111042022705,0.4463579058647156,0.5593602061271667,0.0
190_23rd_St-2026-04-09_01-22-17,1.7931906738281251,0.4273836645057424,0.2880693383723497,-0.945461233958602,0.4464003145694732,0.4412966668605804,0.595999538898468,0.0
190_23rd_St-2026-04-09_01-22-17,1.8031525878906252,0.3521797722984105,0.248185656273365,-0.7433803262561559,0.5836971998214722,0.446515679359436,0.631629467010498,0.0
190_23rd_St-2026-04-09_01-22-17,1.8131145019531252,0.2565206461593509,0.2113262904316186,-0.5125274975776672,0.7043768167495728,0.4648408889770508,0.6610764265060425,0.0
190_23rd_St-2026-04-09_01-22-17,1.82307666015625,0.1622950599547475,0.2358838085830211,-0.2653489725202322,0.7999313473701477,0.4969831109046936,0.6822056770324707,0.0
190_23rd_St-2026-04-09_01-22-17,1.83303857421875,0.1043833162720315,0.242238146045804,-0.0139718267291784,0.8635928630828857,0.5332483053207397,0.6898223757743835,0.0
190_23rd_St-2026-04-09_01-22-17,1.84300146484375,0.0322381905808113,0.2347977669119834,0.1643932743430137,0.8920772671699524,0.5613417625427246,0.6826683282852173,0.0
190_23rd_St-2026-04-09_01-22-17,1.85296337890625,-0.0189909700654447,0.1788163519710302,0.3102840927898884,0.8853257894515991,0.5682862997055054,0.6616706848144531,0.0
190_23rd_St-2026-04-09_01-22-17,1.8629255371093751,-0.0095343557383865,0.1051928973555564,0.3704974462121725,0.8469778895378113,0.5573636293411255,0.6280080676078796,0.0
190_23rd_St-2026-04-09_01-22-17,1.8728874511718752,-0.0462982070500962,0.0304115048766136,0.3646177405238151,0.7835385799407959,0.5347429513931274,0.587439775466919,0.0
190_23rd_St-2026-04-09_01-22-17,1.882849609375,-0.0948573813021183,0.031764673051238,0.3262432939440012,0.7184829115867615,0.5131335258483887,0.5389673113822937,0.0
190_23rd_St-2026-04-09_01-22-17,1.8928115234375,-0.2027045012271963,0.0880892023414373,0.3063298022061586,0.6595163941383362,0.5042188763618469,0.4779014587402344,0.0
190_23rd_St-2026-04-09_01-22-17,1.902774658203125,-0.2066660070030018,0.1333428870409727,0.261236861026287,0.6195908188819885,0.4952064454555511,0.4089895188808441,0.0
190_23rd_St-2026-04-09_01-22-17,1.912736572265625,-0.3736000153373927,0.2516261521160602,0.3279448371648788,0.5822291970252991,0.5032883286476135,0.3352000713348388,0.0
190_23rd_St-2026-04-09_01-22-17,1.9226984863281251,-0.3202699186228215,0.2817068176031112,0.3729425012767314,0.5409088730812073,0.5268344283103943,0.2615410089492798,0.0
190_23rd_St-2026-04-09_01-22-17,1.9326604003906251,-0.1938681559566408,0.2794721904188394,0.4826923312842845,0.48536017537117,0.5668958425521851,0.1988411247730255,0.0
190_23rd_St-2026-04-09_01-22-17,1.9426225585937502,-0.0173260325279086,0.1917646808713674,0.5656102684676647,0.4067452549934387,0.614882230758667,0.157970130443573,0.0
190_23rd_St-2026-04-09_01-22-17,1.9525844726562502,0.2036327767869457,0.0642266807168722,0.6100456225216389,0.3067241907119751,0.670698881149292,0.1423297375440597,0.0
190_23rd_St-2026-04-09_01-22-17,1.962547607421875,0.4229955856146291,-0.0847854846209287,0.5821621748179197,0.1825260818004608,0.7228483557701111,0.1552394032478332,0.0
190_23rd_St-2026-04-09_01-22-17,1.972509521484375,0.5970786619860678,-0.1892640962272882,0.4240624476611614,0.0432867594063282,0.7431957721710205,0.1932395845651626,0.0
190_23rd_St-2026-04-09_01-22-17,1.982471435546875,0.6571009498156607,-0.1735848810583353,0.2171446213215589,-0.0996948927640914,0.7262734770774841,0.2445768117904663,0.0
190_23rd_St-2026-04-09_01-22-17,1.9924335937500002,0.5938311679648235,-0.0866319892704486,-0.0249929869592189,-0.2306451499462127,0.6874997019767761,0.2910555005073547,0.0
190_23rd_St-2026-04-09_01-22-17,2.0023955078125,0.5710086934451013,-0.1042494790256023,-0.0080243165016174,-0.3333651423454284,0.6452616453170776,0.3227242231369018,0.0
190_23rd_St-2026-04-09_01-22-17,2.012357421875,0.3516429620079696,0.2048164701461791,-0.44193186635077,-0.3860274851322174,0.6251687407493591,0.341526448726654,0.0
190_23rd_St-2026-04-09_01-22-17,2.0223203124999998,0.2581837205333635,0.3293745777070522,-0.6508113481521606,-0.3834306299686432,0.642063558101654,0.3625033795833587,0.0
190_23rd_St-2026-04-09_01-22-17,2.032282470703125,0.2358911151066422,0.439341265335679,-0.781935390099883,-0.3262945115566253,0.6757670640945435,0.3994854986667633,0.0
190_23rd_St-2026-04-09_01-22-17,2.042244384765625,0.2782428678195923,0.4687064760297537,-0.7494523396462202,-0.2230711728334427,0.7321357727050781,0.4553785920143127,0.0
190_23rd_St-2026-04-09_01-22-17,2.05220654296875,0.2602777336705476,0.4607183998852968,-0.7427683318376541,-0.091917484998703,0.8112500905990601,0.5334190130233765,0.0
190_23rd_St-2026-04-09_01-22-17,2.06216845703125,0.4244261664070188,0.3691068686366081,-0.4510802184462547,0.0409795828163623,0.8956853747367859,0.6238111853599548,0.0
190_23rd_St-2026-04-09_01-22-17,2.072130615234375,0.5122704540766775,0.2482020228862762,-0.2580278358519077,0.160866841673851,0.9527414441108704,0.7163068056106567,0.0
190_23rd_St-2026-04-09_01-22-17,2.082093505859375,0.4623377447154372,0.2155705038726329,-0.0251157365560531,0.2499517202377319,0.9590027928352356,0.8002091646194458,0.0
190_23rd_St-2026-04-09_01-22-17,2.0920556640625,0.3893260653227567,0.2170592811256647,0.1760392884731292,0.3079917430877685,0.9158111810684204,0.8583981394767761,0.0
190_23rd_St-2026-04-09_01-22-17,2.102017333984375,0.3922786315180361,0.2445195349812507,0.1475514451354742,0.3416205644607544,0.837979257106781,0.8974842429161072,0.0
190_23rd_St-2026-04-09_01-22-17,2.1119794921875,0.2388279722761362,0.2923889551371336,0.5596931533783673,0.3694590628147125,0.7631188035011292,0.9140428900718688,0.0
190_23rd_St-2026-04-09_01-22-17,2.121941650390625,0.1742716212134808,0.2747282107621431,0.7030243504703044,0.3889859020709991,0.7056049108505249,0.9006083011627197,0.0
190_23rd_St-2026-04-09_01-22-17,2.131903564453125,0.1391932205043733,0.2772814023762941,0.9004559710621833,0.4008633196353912,0.6878131031990051,0.883995532989502,0.0
190_23rd_St-2026-04-09_01-22-17,2.141866455078125,0.0875647035432979,0.3196972333014011,1.0181009382337332,0.3998624980449676,0.6960675716400146,0.8626915812492371,0.0
190_23rd_St-2026-04-09_01-22-17,2.15182861328125,0.0546578381869941,0.3583388063848018,1.1496879215180873,0.3880186080932617,0.725845456123352,0.8447996377944946,0.0
190_23rd_St-2026-04-09_01-22-17,2.16179052734375,0.0442948861373588,0.3782476219475269,1.2650211046159268,0.3612027168273926,0.7737850546836853,0.8283661007881165,0.0
190_23rd_St-2026-04-09_01-22-17,2.17175244140625,0.0134780883954837,0.378956062477827,1.3266098380446434,0.3259963095188141,0.8329115509986877,0.8118883967399597,0.0
190_23rd_St-2026-04-09_01-22-17,2.18171435546875,-0.0129625766213983,0.4113333144694566,1.3411375450909138,0.2830179631710052,0.8881468176841736,0.7937048673629761,0.0
190_23rd_St-2026-04-09_01-22-17,2.191676513671875,-0.0193462863091379,0.4830880526036024,1.3781103081792592,0.2367026656866073,0.9291778802871704,0.7725362181663513,0.0
190_23rd_St-2026-04-09_01-22-17,2.2016394042968748,-0.0245205471418797,0.5007815302044153,1.3575275388777257,0.184408962726593,0.9550614953041076,0.7426205277442932,0.0
190_23rd_St-2026-04-09_01-22-17,2.2116015625,0.0817332574434578,0.6410515861600637,1.3993185159027577,0.1278897821903228,0.9632205367088318,0.7143187522888184,0.0
190_23rd_St-2026-04-09_01-22-17,2.221563720703125,0.1861914107836783,0.7055518231213093,1.34394208111763,0.0711812302470207,0.9561349153518676,0.692290723323822,0.0
190_23rd_St-2026-04-09_01-22-17,2.231525390625,0.2926880111489445,0.7912678665906191,1.2753256410092115,0.0139632681384682,0.9392772912979126,0.6803520917892456,0.0
190_23rd_St-2026-04-09_01-22-17,2.241487548828125,0.3891718246091157,0.8727385275751351,1.2865227423280476,-0.0457032546401023,0.9283080101013184,0.68091881275177,0.0
190_23rd_St-2026-04-09_01-22-17,2.251449462890625,0.496702992186509,0.8869231202721595,1.1623714620023966,-0.1010588705539703,0.9341827630996704,0.692912220954895,0.0
190_23rd_St-2026-04-09_01-22-17,2.2614123535156248,0.5605623374283314,0.8722720791071653,0.9527759408861398,-0.1504072546958923,0.9266148209571838,0.7233790755271912,0.0
190_23rd_St-2026-04-09_01-22-17,2.2713742675781248,0.5876757871402427,0.8237070779025554,0.7859627459198236,-0.1872666031122207,0.9317248463630676,0.7680894136428833,0.0
190_23rd_St-2026-04-09_01-22-17,2.281336669921875,0.5804464569412171,0.7537947527647018,0.5193021062791348,-0.2047867476940155,0.943278968334198,0.8185326457023621,0.0
190_23rd_St-2026-04-09_01-22-17,2.29129833984375,0.5733495940154418,0.6160223588436842,0.2327133618533611,-0.2123651355504989,0.9417008757591248,0.8670107126235962,0.0
190_23rd_St-2026-04-09_01-22-17,2.301260498046875,0.5693241013590246,0.4465110108345747,-0.0310585706084966,-0.2175716161727905,0.9332187175750732,0.9185015559196472,0.0
190_23rd_St-2026-04-09_01-22-17,2.31122265625,0.5279794433293864,0.3254764012247323,-0.3373158921003341,-0.210870549082756,0.9125630855560304,0.9557054042816162,0.0
190_23rd_St-2026-04-09_01-22-17,2.3211853027343747,0.4707493435015901,0.2454015785127878,-0.5911316632151603,-0.193144291639328,0.8824379444122314,0.9776983261108398,0.0
190_23rd_St-2026-04-09_01-22-17,2.3311474609375,0.4170401478089392,0.2018722333878278,-0.7975900553494691,-0.1636522859334945,0.8613200783729553,0.972584903240204,0.0
190_23rd_St-2026-04-09_01-22-17,2.341109619140625,0.3460013759244233,0.1511094298779964,-0.95865038587749,-0.1322541534900665,0.8533356189727783,0.9507376551628112,0.0
190_23rd_St-2026-04-09_01-22-17,2.3510712890625,0.3264516394650563,0.0945826560139656,-1.080116372641921,-0.1120740473270416,0.8706139326095581,0.9148051738739014,0.0
190_23rd_St-2026-04-09_01-22-17,2.361033447265625,0.3248188506314531,0.0401706823468208,-1.1423662003278732,-0.1108202338218689,0.916419804096222,0.8820464611053467,0.0
190_23rd_St-2026-04-09_01-22-17,2.37099560546875,0.37207905284781,-0.0052677112698554,-1.1990595629304648,-0.1297613382339477,1.0036239624023438,0.8551642298698425,0.0
190_23rd_St-2026-04-09_01-22-17,2.3809584960937498,0.4425234390357509,-0.0326034619629383,-1.2125351305752992,-0.1599242985248565,1.1385769844055176,0.8422188758850098,0.0
190_23rd_St-2026-04-09_01-22-17,2.39092041015625,0.6136762341089547,-0.0913473273545503,-1.2081418640524149,-0.1944653987884521,1.3262426853179932,0.8474383354187012,0.0
190_23rd_St-2026-04-09_01-22-17,2.400882568359375,0.8809647233244031,-0.2273965507447719,-1.2147463768839837,-0.2220094054937362,1.5410748720169067,0.8797712326049805,0.0
190_23rd_St-2026-04-09_01-22-17,2.4108447265625,1.221220029877499,-0.4315449123710393,-1.1858324170887469,-0.2378599047660827,1.742568850517273,0.9576460123062134,0.0
190_23rd_St-2026-04-09_01-22-17,2.420806396484375,1.420688928450644,-0.6439952383965254,-1.1843921551525591,-0.2512601315975189,1.8892565965652464,1.0653234720230105,0.0
190_23rd_St-2026-04-09_01-22-17,2.430768310546875,1.435499690221995,-0.7560404858648777,-1.2473276270151137,-0.2727119028568268,1.934857726097107,1.1768865585327148,0.0
190_23rd_St-2026-04-09_01-22-17,2.440731689453125,1.3491203605383637,-0.8756365871042012,-1.433171685665846,-0.2988356649875641,1.8701037168502808,1.2610584497451782,0.0
190_23rd_St-2026-04-09_01-22-17,2.4506933593749998,1.2366565953969957,-1.005876247432828,-1.6937673261791466,-0.3053758144378662,1.7110742330551147,1.3112434148788452,0.0
190_23rd_St-2026-04-09_01-22-17,2.460655517578125,1.0526955740138888,-1.0710247191697355,-1.9116303249031303,-0.2727528810501098,1.5007268190383911,1.3139058351516724,0.0
190_23rd_St-2026-04-09_01-22-17,2.47061767578125,0.8245856143027543,-0.9467956974327564,-2.022590115222335,-0.1986487656831741,1.3269299268722534,1.259076714515686,0.0
190_23rd_St-2026-04-09_01-22-17,2.480579345703125,0.6244586902122944,-0.7194125906914473,-2.027403068462014,-0.1007605567574501,1.2139532566070557,1.1484564542770386,0.0
190_23rd_St-2026-04-09_01-22-17,2.49054150390625,0.5074408419631421,-0.4830424598962068,-1.8366332438468933,0.0071062603965401,1.1719505786895752,1.0243134498596191,0.0
190_23rd_St-2026-04-09_01-22-17,2.500504638671875,0.5011511672344059,-0.4721066398620605,-1.849499155160785,0.0924501866102218,1.18751859664917,0.930993914604187,0.0
190_23rd_St-2026-04-09_01-22-17,2.510466552734375,0.4652004406701773,-0.0023094459861516,-1.222841420534253,0.1404078006744384,1.221340894699097,0.897406280040741,0.0
190_23rd_St-2026-04-09_01-22-17,2.520428466796875,0.4574550141751766,0.2023895352602004,-0.9737707981199024,0.1332071423530578,1.2429779767990112,0.9247928857803344,0.0
190_23rd_St-2026-04-09_01-22-17,2.530390625,0.4017542428065091,0.3912655089527368,-0.8028039906054735,0.098252460360527,1.2568334341049194,0.9942846298217772,0.0
190_23rd_St-2026-04-09_01-22-17,2.5403525390625,0.3306307152479887,0.5631359873086214,-0.6976718835264444,0.0606797821819782,1.2663943767547607,1.0757391452789309,0.0
190_23rd_St-2026-04-09_01-22-17,2.550314453125,0.208957953865081,0.6776987705558538,-0.6946908218890429,0.0387813933193683,1.265679121017456,1.1464451551437378,0.0
190_23rd_St-2026-04-09_01-22-17,2.5602775878906248,0.1060483451411128,0.723913409242034,-0.680333795234561,0.0417793132364749,1.2499488592147827,1.186234474182129,0.0
190_23rd_St-2026-04-09_01-22-17,2.570239501953125,0.1123263294320553,0.7367752289026975,-0.6942354793369769,0.0597351938486099,1.2763999700546265,1.1829854249954224,0.0
190_23rd_St-2026-04-09_01-22-17,2.580201416015625,0.2325794332753867,0.8213198905050754,-0.2626093184232712,0.0817970857024192,1.3469256162643433,1.1423410177230835,0.0
190_23rd_St-2026-04-09_01-22-17,2.59016357421875,0.4029731170769781,0.9639514148950576,-0.0325625454306602,0.0799158066511154,1.4196465015411377,1.076967477798462,0.0
190_23rd_St-2026-04-09_01-22-17,2.60012548828125,0.5300941339284181,1.1715735901117323,0.1663829868555069,0.0251380410045385,1.4546407461166382,0.9998913407325744,0.0
190_23rd_St-2026-04-09_01-22-17,2.61008740234375,0.5687143719628452,1.4182038336366414,0.2445885085642337,-0.0824634581804275,1.4457666873931885,0.9157400131225586,0.0
190_23rd_St-2026-04-09_01-22-17,2.6200505371093747,0.5998298603903501,1.6662795997947453,0.1813315496623516,-0.2149930000305175,1.3991209268569946,0.8281624913215637,0.0
190_23rd_St-2026-04-09_01-22-17,2.6300124511718748,0.723768228617683,1.871079703328013,-0.0027191958308219,-0.3282524645328522,1.3422948122024536,0.7476905584335327,0.0
190_23rd_St-2026-04-09_01-22-17,2.639974365234375,0.831798687486723,2.075596898266673,-0.2569990773260593,-0.394572377204895,1.3060009479522705,0.6829515099525452,0.0
190_23rd_St-2026-04-09_01-22-17,2.6499365234375,0.8973076630990952,2.2945792564094067,-0.4783674538224935,-0.4140172898769378,1.2751901149749756,0.6449222564697266,0.0
190_23rd_St-2026-04-09_01-22-17,2.659898681640625,0.9928419938147068,2.441691141083836,-0.616742489811778,-0.3883931338787079,1.2625726461410522,0.6393250823020935,0.0
190_23rd_St-2026-04-09_01-22-17,2.6698603515625,1.0564932127311826,2.551622757399082,-0.6862362972766161,-0.3352459371089935,1.2593282461166382,0.6722782254219055,0.0
190_23rd_St-2026-04-09_01-22-17,2.6798234863281247,1.066209500907734,2.6240274838745594,-0.7067132681161165,-0.2689172327518463,1.2850782871246338,0.7237040996551514,0.0
190_23rd_St-2026-04-09_01-22-17,2.68978564453125,1.037595473907143,2.6164666932314633,-0.7029752506315707,-0.2249136716127395,1.30678391456604,0.7801162600517273,0.0
190_23rd_St-2026-04-09_01-22-17,2.69974755859375,1.177431157033518,2.634479904305935,-0.753538732177019,-0.2146407812833786,1.2940508127212524,0.8342836499214172,0.0
190_23rd_St-2026-04-09_01-22-17,2.709709228515625,1.3693600154906511,2.4372370842844244,-0.7902823626846075,-0.230385422706604,1.253390550613403,0.895175576210022,0.0
190_23rd_St-2026-04-09_01-22-17,2.719671630859375,1.3583572677001357,2.4326824897199866,-0.7871013945609331,-0.2440016418695449,1.193259596824646,0.971831440925598,0.0
190_23rd_St-2026-04-09_01-22-17,2.729633544921875,1.6893853117026387,1.8779688783198591,-1.0092056841164827,-0.2405238151550293,1.1157114505767822,1.0606619119644165,0.0
190_23rd_St-2026-04-09_01-22-17,2.7395964355468747,1.6471481983453031,1.6915747845709324,-1.1158604707181452,-0.2246835976839065,1.035131335258484,1.1386116743087769,0.0
190_23rd_St-2026-04-09_01-22-17,2.74955859375,1.4700842429995535,1.5374153194725513,-1.2352280238986015,-0.2145842462778091,0.9445638656616212,1.1882572174072266,0.0
190_23rd_St-2026-04-09_01-22-17,2.7595205078125,1.2648248513914644,1.3948767340630293,-1.315293494260311,-0.227464348077774,0.8654072880744934,1.1944578886032104,0.0
190_23rd_St-2026-04-09_01-22-17,2.769482421875,1.296175536814332,1.392176827454567,-1.307016664302349,-0.2518787384033203,0.8229222893714905,1.1643152236938477,0.0
190_23rd_St-2026-04-09_01-22-17,2.779444580078125,0.9417234356697648,1.16868722102046,-1.47466046487391,-0.2852816879749298,0.814664363861084,1.0995047092437744,0.0
190_23rd_St-2026-04-09_01-22-17,2.789406494140625,0.8233200513463467,1.135997834339738,-1.557287310156226,-0.3311571180820465,0.818560779094696,1.0215288400650024,0.0
190_23rd_St-2026-04-09_01-22-17,2.7993696289062497,0.7743694118250161,1.087663719281554,-1.6151503010600805,-0.394442081451416,0.8087347745895386,0.9562119245529176,0.0
190_23rd_St-2026-04-09_01-22-17,2.809332275390625,0.6917324104748666,1.0836720192968845,-1.652829751113057,-0.4595946073532104,0.8085891604423523,0.920448899269104,0.0
190_23rd_St-2026-04-09_01-22-17,2.819294189453125,0.6282363090548664,1.141928393432498,-1.8003975628614424,-0.5146453976631165,0.8110427260398865,0.913588047027588,0.0
190_23rd_St-2026-04-09_01-22-17,2.82925634765625,0.5890270921513437,1.1499673229813574,-1.9026351175427436,-0.548557460308075,0.8054421544075012,0.9216902852058412,0.0
190_23rd_St-2026-04-09_01-22-17,2.83921826171875,0.6019871845547109,1.1011457166671752,-1.9490677828937768,-0.5558590292930603,0.8286617398262024,0.9421364665031432,0.0
190_23rd_St-2026-04-09_01-22-17,2.84918017578125,0.6523030480146408,1.0550345383554696,-1.9971610749334097,-0.5393678545951843,0.8704598546028137,0.9725254774093628,0.0
190_23rd_St-2026-04-09_01-22-17,2.859143310546875,0.6740048844739794,1.0322896225839853,-1.9503566536605357,-0.5118382573127747,0.9147626161575316,0.9961903691291808,0.0
190_23rd_St-2026-04-09_01-22-17,2.869105224609375,0.722548623694852,1.0778004969149828,-1.8654735538840292,-0.4708893299102783,0.9563633799552916,1.0056731700897217,0.0
190_23rd_St-2026-04-09_01-22-17,2.879067138671875,0.791197504768148,1.1007277835160494,-1.8208078982055187,-0.4225862324237823,0.9818745851516724,0.998419463634491,0.0
190_23rd_St-2026-04-09_01-22-17,2.889029296875,0.8747268518481403,1.064609006908536,-1.6796365094959735,-0.3647107183933258,0.9940789937973022,0.9914567470550536,0.0
190_23rd_St-2026-04-09_01-22-17,2.8989912109375,0.8953856089953333,1.022323524364829,-1.603486166751385,-0.2962946593761444,1.005318284034729,0.9990960359573364,0.0
190_23rd_St-2026-04-09_01-22-17,2.908953125,0.8598551536697894,0.9640724109262228,-1.49800977627933,-0.2269956618547439,1.00430428981781,1.0277642011642456,0.0
190_23rd_St-2026-04-09_01-22-17,2.918916015625,0.8649555455487221,0.9602782793402672,-1.4934171877920626,-0.1639996469020843,1.00698983669281,1.06922447681427,0.0
190_23rd_St-2026-04-09_01-22-17,2.92887841796875,0.6780019182208925,0.788382666543126,-1.3173872516691685,-0.1037602871656417,1.00825035572052,1.1109014749526978,0.0
190_23rd_St-2026-04-09_01-22-17,2.938840087890625,0.5576140820819884,0.7394663676828146,-1.299250706475973,-0.0418045073747634,0.9946528673171996,1.1421443223953247,0.0
190_23rd_St-2026-04-09_01-22-17,2.94880224609375,0.4144911939784884,0.6747066030025481,-1.2942220646589997,0.0202049035578966,0.963905155658722,1.1510989665985107,0.0
190_23rd_St-2026-04-09_01-22-17,2.958764404296875,0.2817117129739374,0.6271802971959114,-1.236198330235481,0.089393027126789,0.93625807762146,1.1419326066970823,0.0
190_23rd_St-2026-04-09_01-22-17,2.968726318359375,0.154636361895129,0.6015273850232362,-1.2185206347256898,0.1683311015367508,0.9181288480758668,1.11546790599823,0.0
190_23rd_St-2026-04-09_01-22-17,2.978689208984375,0.0178491065539419,0.6120885265260935,-1.147318269777298,0.247904747724533,0.9083046913146972,1.0766397714614868,0.0
190_23rd_St-2026-04-09_01-22-17,2.9886513671875,-0.0589658375792205,0.6286632292300462,-1.0925941614210606,0.3159003853797912,0.9067667722702026,1.0261648893356323,0.0
190_23rd_St-2026-04-09_01-22-17,2.998613037109375,-0.0757446114879101,0.6301718802273273,-1.0415922884583473,0.3664948642253876,0.9085553884506226,0.9750370383262634,0.0
190_23rd_St-2026-04-09_01-22-17,3.0085751953125,-0.0632864772573113,0.6442623649001121,-0.9762725518077612,0.4069301187992096,0.9293113350868224,0.9277979731559752,0.0
190_23rd_St-2026-04-09_01-22-17,3.018537353515625,-0.0173503632515668,0.675074267271161,-0.8774275621742009,0.4435709714889526,0.9715064764022828,0.8888756036758423,0.0
190_23rd_St-2026-04-09_01-22-17,3.028499267578125,0.0592170358613133,0.6818471224069594,-0.788362208276987,0.4686406850814819,1.033752202987671,0.8598057627677917,0.0
190_23rd_St-2026-04-09_01-22-17,3.038462158203125,0.172622027375549,0.6581646335244178,-0.6423100617885589,0.4732407629489898,1.0979524850845337,0.8432997465133667,0.0
190_23rd_St-2026-04-09_01-22-17,3.04842431640625,0.3454090360544621,0.5739104793012142,-0.5150304203093051,0.4587445259094238,1.1621137857437134,0.8417360186576843,0.0
190_23rd_St-2026-04-09_01-22-17,3.058386474609375,0.5092842778727412,0.4185638502448797,-0.4131950166881084,0.4307504594326019,1.21967351436615,0.8641108274459839,0.0
190_23rd_St-2026-04-09_01-22-17,3.06834814453125,0.4945648476466536,0.4522814109295606,-0.4538543593347072,0.3963693976402282,1.2734508514404297,0.9059229493141174,0.0
190_23rd_St-2026-04-09_01-22-17,3.07831005859375,0.9359314082648604,-0.1480897897958755,-0.0688555095613002,0.3557330369949341,1.3550679683685305,0.9698470830917358,0.0
190_23rd_St-2026-04-09_01-22-17,3.0882724609375,1.0965673759009689,-0.4872445877611637,0.060640638923645,0.2995778024196625,1.4568194150924685,1.040629267692566,0.0
190_23rd_St-2026-04-09_01-22-17,3.098235107421875,1.0034319960858673,-0.5545499452710151,0.1212070435672998,0.2185916304588318,1.5000364780426023,1.103966236114502,0.0
190_23rd_St-2026-04-09_01-22-17,3.108197265625,0.7183367050882429,-0.3534954580068588,0.1659457644820213,0.115087054669857,1.4481356143951416,1.115889072418213,0.0
190_23rd_St-2026-04-09_01-22-17,3.118159423828125,0.4255097969252616,-0.1842611733734607,0.0809574507653713,-0.0050340257585048,1.311597466468811,1.07051682472229,0.0
190_23rd_St-2026-04-09_01-22-17,3.12812109375,0.24998539917171,-0.1107750814020633,-0.2143278103351593,-0.1217895150184631,1.092254877090454,0.9896170496940612,0.0
190_23rd_St-2026-04-09_01-22-17,3.138083251953125,0.0716890524867922,0.0011427402943372,-0.6490455075234174,-0.1992939114570617,0.8207560181617737,0.8959909677505493,0.0
190_23rd_St-2026-04-09_01-22-17,3.14804541015625,-0.1085128355585038,0.1990507462263107,-1.0754495498746632,-0.2040017396211624,0.5843042731285095,0.8100022673606873,0.0
190_23rd_St-2026-04-09_01-22-17,3.158008056640625,-0.3755274032033979,0.4342378047168254,-1.4047756122648716,-0.132278025150299,0.4310009777545929,0.7616193294525146,0.0
190_23rd_St-2026-04-09_01-22-17,3.167970458984375,-0.6588920710161328,0.70346157284379,-1.650136858767271,-0.0005670797545462,0.3559462130069732,0.7640335559844971,0.0
190_23rd_St-2026-04-09_01-22-17,3.177932373046875,-0.8503726011838764,0.904852744716406,-1.7677368177533148,0.1675819754600525,0.330780416727066,0.8122842311859131,0.0
190_23rd_St-2026-04-09_01-22-17,3.18789404296875,-0.8075553498510271,0.9273737886041402,-1.789821808311343,0.3560341298580169,0.3669492900371551,0.9059983491897584,0.0
190_23rd_St-2026-04-09_01-22-17,3.197856201171875,-1.214185016674176,1.1444880147874354,-1.385703247526288,0.5498417019844055,0.475925862789154,1.036480188369751,0.0
190_23rd_St-2026-04-09_01-22-17,3.207818359375,-1.269789341931045,1.1338742663145065,-1.0185025047719478,0.7408924102783203,0.6459389328956604,1.1832765340805054,0.0
190_23rd_St-2026-04-09_01-22-17,3.2177802734375,-1.219385727122426,1.1912117720395323,-1.0853788232147692,0.8913775682449341,0.8543747067451477,1.3333914279937744,0.0
190_23rd_St-2026-04-09_01-22-17,3.2277431640625,-1.0345337482489645,0.7371493229120969,-0.1893751553863286,0.9927188158035278,1.064442157745361,1.4675899744033811,0.0
190_23rd_St-2026-04-09_01-22-17,3.237705322265625,-0.8444733870774507,0.5086567936241626,0.1391781690657138,1.0332571268081665,1.234549880027771,1.560128927230835,0.0
190_23rd_St-2026-04-09_01-22-17,3.247667236328125,-0.6411394105739892,0.2444073067784309,0.4652624730557203,1.0166679620742798,1.3404666185379028,1.5862491130828855,0.0
190_23rd_St-2026-04-09_01-22-17,3.257629150390625,-0.4701290561787783,-0.0079833999693393,0.7417325590491295,0.9345523118972778,1.3966898918151855,1.557016134262085,0.0
190_23rd_St-2026-04-09_01-22-17,3.26759130859375,-0.3935593189783394,-0.1602051750034094,0.8736930518209933,0.8015618324279785,1.403947114944458,1.4863368272781372,0.0
190_23rd_St-2026-04-09_01-22-17,3.2775534667968746,-0.2725449667052366,-0.2644756968170404,0.822903944826126,0.6244917511940002,1.348796844482422,1.3763048648834229,0.0
190_23rd_St-2026-04-09_01-22-17,3.28751611328125,-0.0230417615598998,-0.221305248132348,0.7758838349759578,0.4319317638874054,1.2429025173187256,1.2463477849960327,0.0
190_23rd_St-2026-04-09_01-22-17,3.297478271484375,-0.3007715835571289,-0.3879185366123914,0.5634650731325149,0.2358496189117431,1.1186766624450684,1.1109132766723633,0.0
190_23rd_St-2026-04-09_01-22-17,3.3074404296875,-0.1694240350518375,-0.3564817803412675,0.1061655417799949,0.1021178662776947,1.02401602268219,0.9348134994506836,0.0
190_23rd_St-2026-04-09_01-22-17,3.317402099609375,-0.1499828004682436,-0.1192927343785762,-0.2832873647928238,0.0549479611217975,0.8959892988204956,0.7480129599571228,0.0
190_23rd_St-2026-04-09_01-22-17,3.327364013671875,-0.3061056928603909,0.1433954944998025,-0.4618938734054565,0.0576441027224063,0.8245874047279358,0.5679024457931519,0.0
190_23rd_St-2026-04-09_01-22-17,3.337326416015625,-0.3653549687571823,0.4088409131318331,-0.571588758355379,0.0934716090559959,0.7690139412879944,0.4219162464141845,0.0
190_23rd_St-2026-04-09_01-22-17,3.347289306640625,-0.3060917556665837,0.6500041234225035,-0.5420259792625903,0.1388261169195175,0.7621458172798157,0.3394192457199096,0.0
190_23rd_St-2026-04-09_01-22-17,3.357251220703125,-0.1864646017018705,0.8315694818407297,-0.4078624234884977,0.1799511760473251,0.7987570762634277,0.3264065086841583,0.0
190_23rd_St-2026-04-09_01-22-17,3.36721337890625,0.0318310345520265,0.9688064537107944,-0.2393336567759513,0.2071353197097778,0.8854885101318359,0.3698501288890838,0.0
190_23rd_St-2026-04-09_01-22-17,3.37717529296875,0.2267663265498355,1.0193272651582956,0.0161059161484241,0.2141117304563522,1.004652500152588,0.4565629363059997,0.0
190_23rd_St-2026-04-09_01-22-17,3.38713720703125,0.3865051261505112,1.0406009393334388,0.2679705531954765,0.2025956660509109,1.164500117301941,0.5845425128936768,0.0
190_23rd_St-2026-04-09_01-22-17,3.397099365234375,0.5421441257495433,1.053838606569171,0.4538555283784866,0.1723589301109314,1.326573133468628,0.727387547492981,0.0
190_23rd_St-2026-04-09_01-22-17,3.407062255859375,0.701262601494789,0.9539514144062996,0.6517565200477838,0.1259186863899231,1.4702575206756592,0.8637487292289734,0.0
190_23rd_St-2026-04-09_01-22-17,3.4170244140625,0.8797050786521285,0.8384323533475398,0.8014753723502158,0.0770126655697822,1.589807629585266,0.986164391040802,0.0
190_23rd_St-2026-04-09_01-22-17,3.426986328125,1.066836765960604,0.696719697368145,0.8488736678630113,0.0410684235394001,1.668771743774414,1.0840113162994385,0.0
190_23rd_St-2026-04-09_01-22-17,3.4369482421875,1.2423754114352166,0.5149626157701015,0.9251742327332496,0.0217541120946407,1.7097636461257937,1.1572988033294678,0.0
190_23rd_St-2026-04-09_01-22-17,3.44691015625,1.3571414621695876,0.3639928866237402,0.9902426249712704,0.0106030832976102,1.727991223335266,1.2139753103256226,0.0
190_23rd_St-2026-04-09_01-22-17,3.456872314453125,1.4321457036189733,0.2307885312706231,1.0070552280843257,-0.0021302890963852,1.7145038843154907,1.2571650743484497,0.0
190_23rd_St-2026-04-09_01-22-17,3.466835205078125,1.4501698744788765,0.1013502504527568,0.962971756207943,-0.0246544294059276,1.6624772548675537,1.28667950630188,0.0
190_23rd_St-2026-04-09_01-22-17,3.476797119140625,1.3723812630079686,0.0482300701618194,0.8163876947999,-0.0526770092546939,1.5746254920959473,1.3031021356582642,0.0
190_23rd_St-2026-04-09_01-22-17,3.48675927734375,1.267908204359561,0.0714046095222234,0.6434820281773805,-0.0786578655242919,1.4448474645614624,1.2944326400756836,0.0
190_23rd_St-2026-04-09_01-22-17,3.49672119140625,1.1749416052401065,0.0899175868123769,0.4940992759615182,-0.0933784916996955,1.314939022064209,1.262430191040039,0.0
190_23rd_St-2026-04-09_01-22-17,3.50668310546875,1.0873911128852516,0.1689753414362668,0.3280360225796699,-0.0806589797139167,1.2079994678497314,1.21115243434906,0.0
190_23rd_St-2026-04-09_01-22-17,3.516645263671875,1.0508704044133423,0.2119073051899671,0.2058160025775432,-0.0548590719699859,1.1301703453063965,1.147330403327942,0.0
190_23rd_St-2026-04-09_01-22-17,3.526608154296875,1.078455015300959,0.2433820553839206,0.1331692840397358,-0.0285746529698371,1.0988956689834597,1.0847429037094116,0.0
190_23rd_St-2026-04-09_01-22-17,3.5365703125,1.101947023112699,0.3024117519795894,0.0913408976137638,-0.0179563648998737,1.1122854948043823,1.0388590097427368,0.0
190_23rd_St-2026-04-09_01-22-17,3.5465322265625,1.151388441825658,0.3984083664447069,0.0493266332268714,-0.0288501493632793,1.149514079093933,1.01603901386261,0.0
190_23rd_St-2026-04-09_01-22-17,3.556494384765625,1.2030784431830048,0.4734089546322822,-0.0128179805189371,-0.0588448010385036,1.213220715522766,1.020492672920227,0.0
190_23rd_St-2026-04-09_01-22-17,3.566456298828125,1.2285225349105895,0.5394488222509622,-0.0394680870354175,-0.0943711027503013,1.291998267173767,1.051967740058899,0.0
190_23rd_St-2026-04-09_01-22-17,3.57641796875,1.2654423987679182,0.5681885945230722,-0.1731996811330318,-0.1318761259317398,1.4012629985809326,1.094409465789795,0.0
190_23rd_St-2026-04-09_01-22-17,3.58638134765625,1.2788324800863862,0.5489408732175827,-0.4143021011471748,-0.1626492589712143,1.4664579629898071,1.136469483375549,0.0
190_23rd_St-2026-04-09_01-22-17,3.59634326171875,1.1774191743347793,0.6174824945241213,-0.6102589730113744,-0.1878664642572403,1.511203050613403,1.1609971523284912,0.0
190_23rd_St-2026-04-09_01-22-17,3.60630517578125,1.074876864553243,0.770799663579464,-0.8849690635949373,-0.1988566517829895,1.5121324062347412,1.1571255922317505,0.0
190_23rd_St-2026-04-09_01-22-17,3.616267333984375,0.9566852963496,0.9013695787757636,-1.162083292710781,-0.1962323635816574,1.4835937023162842,1.124580144882202,0.0
190_23rd_St-2026-04-09_01-22-17,3.626229248046875,0.8159576328195631,0.9774912799477576,-1.3931459647476672,-0.1771160960197448,1.436593770980835,1.0794897079467771,0.0
190_23rd_St-2026-04-09_01-22-17,3.636191162109375,0.7162007159728556,1.0660872627675533,-1.5291747298717495,-0.1340679675340652,1.4192297458648682,1.038261890411377,0.0
190_23rd_St-2026-04-09_01-22-17,3.646154296875,0.6512733396407216,1.1742857716798782,-1.6323416743576526,-0.0703601464629173,1.4477449655532837,1.013898491859436,0.0
190_23rd_St-2026-04-09_01-22-17,3.6561162109375,0.6360574311345816,1.3167857786446808,-1.6196616410046816,0.0070864376612007,1.5176138877868652,1.012108325958252,0.0
190_23rd_St-2026-04-09_01-22-17,3.666078125,0.6630456835642456,1.4083698373645543,-1.5558745207488536,0.0756271332502365,1.6160259246826172,1.0353835821151731,0.0
190_23rd_St-2026-04-09_01-22-17,3.676040283203125,0.7580899657405913,1.4348790741056203,-1.4357874211221933,0.127496987581253,1.7320449352264404,1.091066837310791,0.0
190_23rd_St-2026-04-09_01-22-17,3.686002197265625,0.7524220031067729,1.4415291796445846,-1.4456506434887646,0.1425699889659881,1.8664300441741943,1.1817145347595217,0.0
190_23rd_St-2026-04-09_01-22-17,3.695964111328125,0.8792777931507676,1.314672147491574,-1.1501052701473236,0.1156164035201072,1.9954519271850584,1.290445327758789,0.0
190_23rd_St-2026-04-09_01-22-17,3.70592724609375,0.9902201208785176,1.1148626918524502,-1.077981114178896,0.0606242157518863,2.092421054840088,1.408335566520691,0.0
190_23rd_St-2026-04-09_01-22-17,3.71588916015625,1.1105590763743969,0.8396540040969848,-1.0286129798978567,-0.0042149694636464,2.1637797355651855,1.5218720436096191,0.0
190_23rd_St-2026-04-09_01-22-17,3.725851318359375,1.120394533951208,0.8364788811922073,-1.0239747987031935,-0.0717238709330558,2.18057632446289,1.6147595643997192,0.0
190_23rd_St-2026-04-09_01-22-17,3.735813232421875,0.8494781365621834,0.6019155075579882,-1.4053215557098389,-0.1395588517189026,2.1063454151153564,1.6542375087738037,0.0
190_23rd_St-2026-04-09_01-22-17,3.745775146484375,0.4950520101090893,0.6858738937050104,-1.6543968542993068,-0.1922376751899719,1.9475672245025637,1.6246957778930664,0.0
190_23rd_St-2026-04-09_01-22-17,3.7557373046875,0.1264574657756369,0.7535819867968558,-1.8500807544410227,-0.2139946371316909,1.7623475790023804,1.533991456031799,0.0
190_23rd_St-2026-04-09_01-22-17,3.7657001953124998,-0.1045794598986394,0.8166437153875827,-1.9120622865796089,-0.2028574496507644,1.6232328414916992,1.4084643125534058,0.0
190_23rd_St-2026-04-09_01-22-17,3.775662109375,-0.2089347008536569,0.9258142842024564,-1.8610013769060372,-0.148418441414833,1.561819553375244,1.267977952957153,0.0
190_23rd_St-2026-04-09_01-22-17,3.785624267578125,-0.1984019999939948,0.9171797268480062,-1.848718818438053,-0.0796627849340438,1.588427186012268,1.1365458965301514,0.0
190_23rd_St-2026-04-09_01-22-17,3.795586181640625,-0.1253821555611677,1.2529162408024073,-1.3222995736300944,-0.0309317354112863,1.687063455581665,1.0258241891860962,0.0
190_23rd_St-2026-04-09_01-22-17,3.805548095703125,0.0025307057877071,1.342905139285326,-1.0389408971667289,-0.0228921677917242,1.8319199085235596,0.9472060203552246,0.0
190_23rd_St-2026-04-09_01-22-17,3.815510009765625,0.0662523869913537,1.3920581695109604,-0.7365238844901323,-0.0606621801853179,1.9957674741744995,0.905173122882843,0.0
190_23rd_St-2026-04-09_01-22-17,3.8254731445312498,0.0366982295964378,1.407609374386072,-0.5254232195079326,-0.1400568485260009,2.1611013412475586,0.8918606638908386,0.0
190_23rd_St-2026-04-09_01-22-17,3.83543505859375,-0.0153163503730436,1.3964239635050295,-0.5084533800065517,-0.2365764677524566,2.31252384185791,0.9046648740768432,0.0
190_23rd_St-2026-04-09_01-22-17,3.84539697265625,0.2772138170327991,1.1573299607038496,-0.2626251005142927,-0.3273968994617462,2.4408304691314697,0.9249080419540404,0.0
190_23rd_St-2026-04-09_01-22-17,3.855359130859375,0.494224984700419,1.1516606828957796,-0.3617132512539625,-0.4078510105609894,2.491560220718384,0.921193778514862,0.0
190_23rd_St-2026-04-09_01-22-17,3.865321044921875,0.7684018086574971,1.1260136159420011,-0.6225894622743129,-0.4560495615005493,2.4198474884033203,0.8915513157844543,0.0
190_23rd_St-2026-04-09_01-22-17,3.875282958984375,1.0974672473501417,1.048821655189991,-0.880864550885558,-0.4474038481712341,2.259420871734619,0.8547890186309814,0.0
190_23rd_St-2026-04-09_01-22-17,3.885244873046875,1.041615669333935,1.0271440763890742,-0.852796394264698,-0.3723337650299072,2.0378613471984863,0.8205053806304932,0.0
190_23rd_St-2026-04-09_01-22-17,3.8952080078124998,1.5638552903696894,1.016792193722725,-1.3376444422781466,-0.2477790862321853,1.794424533843994,0.7903581261634827,0.0
190_23rd_St-2026-04-09_01-22-17,3.905169921875,1.6012255283430217,1.0165350040912629,-1.2780109345704316,-0.1108782812952995,1.6035367250442505,0.7752461433410645,0.0
190_23rd_St-2026-04-09_01-22-17,3.915132080078125,1.5519024022474883,0.9885007497400043,-1.16255149474442,-0.004328403621912,1.492246389389038,0.7745271325111389,0.0
190_23rd_St-2026-04-09_01-22-17,3.925093994140625,1.443474906884879,0.9989876569628716,-1.0132552517682314,0.0397184342145919,1.4399312734603882,0.7929478883743286,0.0
190_23rd_St-2026-04-09_01-22-17,3.935055908203125,1.31571040449813,1.0111626634031534,-0.8934709344804287,0.0156045751646161,1.429995894432068,0.8177856206893921,0.0
190_23rd_St-2026-04-09_01-22-17,3.94501806640625,1.1959824935726822,0.9786480487674474,-0.869497353696823,-0.067794568836689,1.4413126707077026,0.8382518887519836,0.0
190_23rd_St-2026-04-09_01-22-17,3.95498095703125,1.11797066780515,0.974883143275976,-0.9371697909533976,-0.1917452812194824,1.471490502357483,0.8445925712585449,0.0
190_23rd_St-2026-04-09_01-22-17,3.96494287109375,1.0567154041144995,1.0271692108303307,-1.059438910794258,-0.3222081363201141,1.5132321119308472,0.8295902013778687,0.0
190_23rd_St-2026-04-09_01-22-17,3.9749050292968753,0.9799377963170408,1.075470592662692,-1.2176596339821817,-0.4490489065647125,1.5587146282196045,0.7960007786750793,0.0
190_23rd_St-2026-04-09_01-22-17,3.9848669433593744,0.9130587013952434,1.1380763941794634,-1.3397580734312533,-0.5552993416786194,1.6104817390441897,0.7575709819793701,0.0
190_23rd_St-2026-04-09_01-22-17,3.9948291015624995,0.8726075946718453,1.20268652125597,-1.4838503180235625,-0.6460590958595276,1.661259412765503,0.7277933955192566,0.0
190_23rd_St-2026-04-09_01-22-17,4.004791015625,0.830779792767763,1.1669669730991123,-1.440123989021778,-0.7135736346244812,1.6953591108322144,0.7166934013366699,0.0
190_23rd_St-2026-04-09_01-22-17,4.014754150390625,0.9051275430697948,1.4106208311617374,-1.7890800500333308,-0.7560116648674011,1.6956826448440552,0.7267055511474609,0.0
190_23rd_St-2026-04-09_01-22-17,4.0247158203125,0.9236160435058176,1.4511451492518186,-1.917024877423048,-0.7686430811882019,1.674342155456543,0.7519389390945435,0.0
190_23rd_St-2026-04-09_01-22-17,4.034677978515625,0.9299592750526964,1.4672925664544103,-1.96543673389256,-0.7555704116821289,1.6519564390182495,0.7946941256523132,0.0
190_23rd_St-2026-04-09_01-22-17,4.04464013671875,0.9267781607985496,1.461603414902091,-1.9662638323664663,-0.7228841781616211,1.6361122131347656,0.8518446683883667,0.0
190_23rd_St-2026-04-09_01-22-17,4.05460205078125,0.8955493481896817,1.425720785138011,-1.925159668561816,-0.681858479976654,1.620535969734192,0.9255923628807068,0.0
190_23rd_St-2026-04-09_01-22-17,4.06456396484375,0.8256023901298641,1.331897423058748,-1.8687831168234348,-0.6412433981895447,1.6068485975265503,1.0034266710281372,0.0
190_23rd_St-2026-04-09_01-22-17,4.074527099609376,0.6882857771523296,1.2684113315761087,-1.8067513158023356,-0.6090196371078491,1.5951802730560305,1.077262282371521,0.0
190_23rd_St-2026-04-09_01-22-17,4.084489013671876,0.5134604675788432,1.212755495327711,-1.7015607565343378,-0.5843608379364014,1.5686017274856567,1.1293166875839231,0.0
190_23rd_St-2026-04-09_01-22-17,4.094450927734376,0.3677681673787534,1.1514467478841544,-1.5907202086806296,-0.5645261406898499,1.5490520000457764,1.155866026878357,0.0
190_23rd_St-2026-04-09_01-22-17,4.1044130859375,0.3582587268859147,1.126418689611554,-1.5620476564258337,-0.5527762770652771,1.530709743499756,1.1599478721618652,0.0
190_23rd_St-2026-04-09_01-22-17,4.114375,0.2356828791834413,1.0511357773512602,-1.5005366644084452,-0.5374042391777039,1.509598970413208,1.150928258895874,0.0
190_23rd_St-2026-04-09_01-22-17,4.1243369140625,0.2138020328953862,1.0271914226621388,-1.4726719214051962,-0.5169885158538818,1.4852169752120972,1.1391386985778809,0.0
190_23rd_St-2026-04-09_01-22-17,4.134300048828125,0.2051682792585343,1.0057833084523675,-1.4487994629085064,-0.4773598611354828,1.453599214553833,1.140470027923584,0.0
190_23rd_St-2026-04-09_01-22-17,4.14426220703125,0.2125835970163345,0.938683702647686,-1.430242061954737,-0.4300702810287475,1.4038618803024292,1.1545875072479248,0.0
190_23rd_St-2026-04-09_01-22-17,4.154223876953125,0.2109244316324591,0.9234890561252832,-1.412880008265376,-0.3756991922855377,1.3446719646453855,1.1789400577545166,0.0
190_23rd_St-2026-04-09_01-22-17,4.16418603515625,0.0674807140767574,0.7207248423337936,-1.3610089512526988,-0.320825457572937,1.278873085975647,1.2070577144622805,0.0
190_23rd_St-2026-04-09_01-22-17,4.174148193359375,-0.0603723433762788,0.6110919167041778,-1.318591366761923,-0.2714440524578094,1.2164565324783323,1.2188163995742798,0.0
190_23rd_St-2026-04-09_01-22-17,4.18410986328125,-0.1829538901671767,0.4930126497685909,-1.2331149772673844,-0.2302995026111602,1.1601002216339111,1.204405665397644,0.0
190_23rd_St-2026-04-09_01-22-17,4.194072753906251,-0.2811878352303057,0.3889472951382398,-1.1443611735373735,-0.1977767199277877,1.1199133396148682,1.158020257949829,0.0
190_23rd_St-2026-04-09_01-22-17,4.204035156250001,-0.2698077054947614,0.3865869957476854,-1.1401596301943062,-0.1749610751867294,1.0917458534240725,1.0853761434555054,0.0
190_23rd_St-2026-04-09_01-22-17,4.213996826171876,-0.3296696151308715,0.2512485509753227,-1.003874844482541,-0.1705830991268158,1.0657312870025637,0.9959123730659484,0.0
190_23rd_St-2026-04-09_01-22-17,4.223958984375001,-0.2829183122847229,0.2099023951083421,-0.8971920008301735,-0.1819853335618972,1.051243782043457,0.9057217240333556,0.0
190_23rd_St-2026-04-09_01-22-17,4.233921142578125,-0.2867475882492959,0.2047714619606733,-0.8918424564957618,-0.2029958218336105,1.0480599403381348,0.8291841149330139,0.0
190_23rd_St-2026-04-09_01-22-17,4.243883056640625,-0.1094082500282675,0.1369984869390726,-0.7704255695700645,-0.22542305290699,1.059926986694336,0.7764648199081421,0.0
190_23rd_St-2026-04-09_01-22-17,4.253845947265625,-0.1224731910455971,0.1283352880120277,-0.7623217580914496,-0.2456489503383636,1.0717748403549194,0.7485692501068115,0.0
190_23rd_St-2026-04-09_01-22-17,4.26380810546875,-0.0127592360690236,0.089626494911313,-0.744351801636815,-0.2611370682716369,1.0636028051376345,0.7352378964424133,0.0
190_23rd_St-2026-04-09_01-22-17,4.273769775390625,-0.0034490444753319,0.0311035787940025,-0.7586895390689372,-0.2655954658985138,1.024013876914978,0.724365770816803,0.0
190_23rd_St-2026-04-09_01-22-17,4.28373193359375,-0.0600265986785292,0.0063385553717613,-0.750778619813919,-0.2530664801597595,0.9727821946144104,0.7126725316047668,0.0
190_23rd_St-2026-04-09_01-22-17,4.293694091796875,-0.1560528776295483,-0.0110346042335033,-0.7595511243343352,-0.2287419736385345,0.9030026197433472,0.6876007318496704,0.0
190_23rd_St-2026-04-09_01-22-17,4.303656005859375,-0.1633639312952756,-0.0186819041162729,-0.7520201443076133,-0.1949609965085983,0.8236826658248901,0.6539040207862854,0.0
190_23rd_St-2026-04-09_01-22-17,4.313618896484376,-0.2911287259429693,-0.0725415045976638,-0.6724737293839455,-0.1605124771595001,0.7495424151420593,0.6133413910865784,0.0
190_23rd_St-2026-04-09_01-22-17,4.323581054687501,-0.3154814422372728,-0.0750099405378103,-0.6038222179621457,-0.1270664781332016,0.6959916353225708,0.5732283592224121,0.0
190_23rd_St-2026-04-09_01-22-17,4.333543212890626,-0.3507674212824553,-0.0540296963512897,-0.5230851319491863,-0.0951793864369392,0.6605747938156128,0.533416748046875,0.0
190_23rd_St-2026-04-09_01-22-17,4.343504882812501,-0.3860110955558717,-0.0209761525332927,-0.4034054440796375,-0.067962571978569,0.6427597999572754,0.5034968852996826,0.0
190_23rd_St-2026-04-09_01-22-17,4.353466796875001,-0.3920872005991637,-0.019830489629507,-0.4055594072431325,-0.0375825650990009,0.6340858936309814,0.4760767221450805,0.0
190_23rd_St-2026-04-09_01-22-17,4.36342919921875,-0.4605899512000381,-0.0504693735212087,-0.3312012086123228,0.0008402264211326,0.5926774740219116,0.4486183822154999,0.0
190_23rd_St-2026-04-09_01-22-17,4.373391845703125,-0.5206533747576176,-0.0920130977869033,-0.2762748556822538,0.037932202219963,0.5211055874824524,0.4312457740306854,0.0
190_23rd_St-2026-04-09_01-22-17,4.38335400390625,-0.5960009497519582,-0.1359989545077085,-0.2678220846354961,0.0767736211419105,0.431768000125885,0.4165437221527099,0.0
190_23rd_St-2026-04-09_01-22-17,4.393316162109375,-0.6453389811556786,-0.1540548356801271,-0.237855400916934,0.1100863069295883,0.3346007168292999,0.397108793258667,0.0
190_23rd_St-2026-04-09_01-22-17,4.40327783203125,-0.6577195201054215,-0.1798474485844373,-0.1624666901946067,0.1460267156362533,0.2660363018512726,0.3727169036865234,0.0
190_23rd_St-2026-04-09_01-22-17,4.413239990234375,-0.672369246096164,-0.212567814925313,-0.0815507404834032,0.1792043894529342,0.2322580814361572,0.3530875146389007,0.0
190_23rd_St-2026-04-09_01-22-17,4.4232021484375,-0.6591684037394822,-0.2641530407339334,0.0113034843027591,0.2089753746986389,0.2252771854400634,0.3320302963256836,0.0
190_23rd_St-2026-04-09_01-22-17,4.433163818359375,-0.6022204818539321,-0.3431020742863416,0.1132610529989004,0.2306258082389831,0.226037785410881,0.3193472623825073,0.0
190_23rd_St-2026-04-09_01-22-17,4.443127197265626,-0.5721781756158918,-0.4634685753762722,0.2043389157623052,0.2394250780344009,0.2311924993991851,0.3096776008605957,0.0
190_23rd_St-2026-04-09_01-22-17,4.453089111328126,-0.5630919289711862,-0.5782067151904106,0.3427385016709566,0.2254559993743896,0.2249764204025268,0.2989131212234497,0.0
190_23rd_St-2026-04-09_01-22-17,4.463051025390626,-0.5700144217107445,-0.6586801818311214,0.5033399825155734,0.1785135567188263,0.2212943732738495,0.2907812893390655,0.0
190_23rd_St-2026-04-09_01-22-17,4.473012939453126,-0.584953559102118,-0.718700643029809,0.658884179970622,0.1020624712109565,0.2294031679630279,0.2711010575294494,0.0
190_23rd_St-2026-04-09_01-22-17,4.48297509765625,-0.5063419408105313,-0.773725780159235,0.734167092230916,0.0047426554374396,0.2432277202606201,0.2437626719474792,0.0
190_23rd_St-2026-04-09_01-22-17,4.49293701171875,-0.4279578476645052,-0.7962152598649263,0.7037316219568253,-0.1020085588097572,0.2475833147764206,0.2091085612773895,0.0
190_23rd_St-2026-04-09_01-22-17,4.50289990234375,-0.4292434304956346,-0.8042325621038675,0.7129056930154561,-0.2019450664520263,0.2291049212217331,0.165641650557518,0.0
190_23rd_St-2026-04-09_01-22-17,4.512862060546875,-0.4188171674188226,-0.6744768858999014,0.4696873037606477,-0.2864322662353515,0.1832836419343948,0.1115914583206176,0.0
190_23rd_St-2026-04-09_01-22-17,4.522823974609375,-0.4557070745293051,-0.6195090319156646,0.3086263887107372,-0.3435068428516388,0.1204921901226043,0.0589123331010341,0.0
190_23rd_St-2026-04-09_01-22-17,4.532785888671875,-0.5238968136582524,-0.6080331136554479,0.1161620351374149,-0.3670571744441986,0.0584983266890049,0.0140503160655498,0.0
190_23rd_St-2026-04-09_01-22-17,4.542748046875,-0.6004953385617584,-0.5858697971642017,-0.0947849005877971,-0.3609524071216583,-0.0164404958486557,-0.0215092673897743,0.0
190_23rd_St-2026-04-09_01-22-17,4.552710205078125,-0.5998769874677061,-0.6085936701476573,-0.0689706603735685,-0.331200897693634,-0.0867900252342224,-0.0513776838779449,0.0
190_23rd_St-2026-04-09_01-22-17,4.562672851562501,-0.7650625081669539,-0.4378840522646903,-0.3867278655230999,-0.279276430606842,-0.1374825984239578,-0.0798006430268287,0.0
190_23rd_St-2026-04-09_01-22-17,4.572635009765626,-0.8703193376041948,-0.3645715632945299,-0.4504956965565681,-0.207632839679718,-0.1599117368459701,-0.1051752418279647,0.0
190_23rd_St-2026-04-09_01-22-17,4.582597167968751,-0.9185258807599544,-0.3125011843174696,-0.4588999522864818,-0.1240556389093399,-0.1577600091695785,-0.1237104013562202,0.0
190_23rd_St-2026-04-09_01-22-17,4.592558837890626,-0.9262526756197214,-0.2417804654061794,-0.3873743467330932,-0.0299565680325031,-0.1340759843587875,-0.1367119401693344,0.0
190_23rd_St-2026-04-09_01-22-17,4.602520751953126,-0.9352670260719954,-0.2013093388080596,-0.2931944263011217,0.0601355656981468,-0.0971859470009803,-0.1407356262207031,0.0
190_23rd_St-2026-04-09_01-22-17,4.612483154296875,-0.9789092569869012,-0.1606868210405111,-0.1467056419610977,0.1397803276777267,-0.0612729601562023,-0.1378833800554275,0.0
190_23rd_St-2026-04-09_01-22-17,4.622446044921875,-1.0022021620299666,-0.126719669508934,0.0303635740816593,0.1950440853834152,-0.0296169240027666,-0.1316376626491546,0.0
190_23rd_St-2026-04-09_01-22-17,4.632407958984375,-1.0065693442635235,-0.0901361979991197,0.2200473570257425,0.2274204045534134,5.12234400957e-05,-0.1316733360290527,0.0
190_23rd_St-2026-04-09_01-22-17,4.6423701171875,-0.9993450920984148,-0.0506277789533138,0.381772288942337,0.2421592772006988,0.0217248350381851,-0.1352408081293106,0.0
190_23rd_St-2026-04-09_01-22-17,4.65233203125,-0.9885779066294432,-0.0314174670487642,0.5372264700263738,0.2387187480926513,0.0342643298208713,-0.1532448381185531,0.0
190_23rd_St-2026-04-09_01-22-17,4.6622939453125,-0.9409903721548616,-0.0262596458941698,0.6609504648506641,0.2144287526607513,0.0396549925208091,-0.1828042715787887,0.0
190_23rd_St-2026-04-09_01-22-17,4.672256103515625,-0.8488150695435702,-0.0320820684373378,0.7570125457674265,0.1791748851537704,0.0399852246046066,-0.2208190262317657,0.0
190_23rd_St-2026-04-09_01-22-17,4.682218994140626,-0.774621998346597,-0.0155184716492891,0.8015168734043836,0.1440288871526718,0.0282522812485694,-0.2697123289108276,0.0
190_23rd_St-2026-04-09_01-22-17,4.692180908203126,-0.7244330492019653,0.018791794231534,0.789975488692522,0.0975796356797218,-0.0071589713916182,-0.3230839371681213,0.0
190_23rd_St-2026-04-09_01-22-17,4.702143066406251,-0.6839871301103383,0.0797527511507272,0.7749825022220611,0.0466006472706794,-0.0592339783906936,-0.3726787865161896,0.0
190_23rd_St-2026-04-09_01-22-17,4.712104980468751,-0.685571184431389,0.1567588339418172,0.7342436645984649,-0.0052604181692004,-0.1122708320617675,-0.4126405715942383,0.0
190_23rd_St-2026-04-09_01-22-17,4.722066894531251,-0.6955332640625536,0.2198813528090715,0.6397533630430698,-0.0545481070876121,-0.16450797021389,-0.4410808980464935,0.0
190_23rd_St-2026-04-09_01-22-17,4.732029052734375,-0.7387620918709784,0.304395034751296,0.5922586214184761,-0.0988359451293945,-0.1957050412893295,-0.4544113576412201,0.0
190_23rd_St-2026-04-09_01-22-17,4.741991943359375,-0.7591107601556927,0.2919347816288471,0.6029612172186374,-0.1324301213026046,-0.206335574388504,-0.4567030072212219,0.0
190_23rd_St-2026-04-09_01-22-17,4.7519541015625,-0.7372527102213352,0.3088736414700746,0.3937076414078473,-0.1489679515361786,-0.2040552496910095,-0.4469517171382904,0.0
190_23rd_St-2026-04-09_01-22-17,4.761916015625,-0.663094637272507,0.2797667894512415,0.3758504976779222,-0.143373817205429,-0.1698544919490814,-0.4276328384876251,0.0
190_23rd_St-2026-04-09_01-22-17,4.7718779296875,-0.6838781167779118,0.2664186475783586,0.3871452141523361,-0.121942825615406,-0.115250639617443,-0.3964174091815948,0.0
190_23rd_St-2026-04-09_01-22-17,4.78183984375,-0.482796814572066,0.1415004745334386,0.450570515358448,-0.0983217060565948,-0.0625973492860794,-0.3516068756580353,0.0
190_23rd_St-2026-04-09_01-22-17,4.791802001953125,-0.3753681940536946,0.0178700032114982,0.5425649084448814,-0.080941118299961,-0.0332791358232498,-0.2867991328239441,0.0
190_23rd_St-2026-04-09_01-22-17,4.8017648925781256,-0.3406313002586364,-0.108328857293725,0.6257125627309084,-0.0752913802862167,-0.0287521872669458,-0.2030595391988754,0.0
190_23rd_St-2026-04-09_01-22-17,4.8117263183593755,-0.3698128249488771,-0.2276993330836296,0.6870745016664266,-0.0827628821134567,-0.0560067109763622,-0.1102433055639267,0.0
190_23rd_St-2026-04-09_01-22-17,4.8216884765625005,-0.4823093233160674,-0.3015782237648964,0.6548796205043792,-0.1066839024424552,-0.1190044358372688,-0.0222085807472467,0.0
190_23rd_St-2026-04-09_01-22-17,4.831650390625001,-0.6159373109087347,-0.3644499827414751,0.5499088414669037,-0.1453998833894729,-0.2320737242698669,0.0505567006766796,0.0
190_23rd_St-2026-04-09_01-22-17,4.841612304687501,-0.8411243689104915,-0.4241606473386287,0.3298988938421011,-0.1765822321176529,-0.3694324195384979,0.0968353003263473,0.0
190_23rd_St-2026-04-09_01-22-17,4.851574462890626,-1.0621638787787406,-0.4844201779901981,0.1626420467615127,-0.1851126104593277,-0.4881745278835296,0.1172875761985778,0.0
190_23rd_St-2026-04-09_01-22-17,4.861536376953126,-1.2374234881162642,-0.4856085109919309,0.0618131898343563,-0.1640720814466476,-0.551710307598114,0.1130125895142555,0.0
190_23rd_St-2026-04-09_01-22-17,4.871499267578125,-1.4069146701201796,-0.4503127412050962,-0.043747371789813,-0.1257827579975128,-0.568234920501709,0.0863825753331184,0.0
190_23rd_St-2026-04-09_01-22-17,4.88146142578125,-1.5290329833135008,-0.4523106370240449,-0.0849094032615423,-0.0837332010269165,-0.5585128664970398,0.0480364896357059,0.0
190_23rd_St-2026-04-09_01-22-17,4.89142333984375,-1.5686650287389754,-0.4410509918630123,-0.0242056359738111,-0.042814802378416,-0.5177321434020996,0.0105650164186954,0.0
190_23rd_St-2026-04-09_01-22-17,4.90138525390625,-1.5246490691408514,-0.3950806833267212,0.0805541306614875,-0.0054515334777534,-0.456261932849884,-0.0231559555977582,0.0
190_23rd_St-2026-04-09_01-22-17,4.911347412109375,-1.4543702487781642,-0.3216676565915346,0.26151100179255,0.0217641070485115,-0.3810784816741943,-0.049749482423067,0.0
190_23rd_St-2026-04-09_01-22-17,4.921309326171875,-1.3221359075009822,-0.3050193041294813,0.4262263476967811,0.0299378838390111,-0.3112996518611908,-0.0598740503191947,0.0
190_23rd_St-2026-04-09_01-22-17,4.931272216796875,-1.1764048096604645,-0.3148433635294437,0.552914453023672,0.021226417273283,-0.2629358470439911,-0.050540205091238,0.0
190_23rd_St-2026-04-09_01-22-17,4.9412343750000005,-1.0593045438248665,-0.3187701815843582,0.6750380269140005,0.0059021553024649,-0.235706552863121,-0.0324794687330722,0.0
190_23rd_St-2026-04-09_01-22-17,4.951196533203126,-0.9770323571991176,-0.3199515003234148,0.7637877389907837,-0.0085106063634157,-0.2297178953886032,-0.021701656281948,0.0
190_23rd_St-2026-04-09_01-22-17,4.961158447265626,-0.8988147066611796,-0.3368365841507911,0.7852829469621181,-0.0168286394327878,-0.2422229498624801,-0.0262239445000886,0.0
190_23rd_St-2026-04-09_01-22-17,4.971120361328126,-0.8439845075819641,-0.3624029870837926,0.7950678433954715,-0.0234343446791172,-0.2793924212455749,-0.0496296696364879,0.0
190_23rd_St-2026-04-09_01-22-17,4.981082519531251,-0.7758985941536725,-0.4294225133895873,0.8267793249547482,-0.0326580628752708,-0.3173280656337738,-0.0836248099803924,0.0
190_23rd_St-2026-04-09_01-22-17,4.991045166015625,-0.7180600801039486,-0.4656260456711054,0.7660726350575685,-0.0520024634897708,-0.3576419353485107,-0.1233993843197822,0.0
190_23rd_St-2026-04-09_01-22-17,5.00100732421875,-0.7020964950356632,-0.505142648023367,0.7816366994142532,-0.0775512680411338,-0.3920561671257019,-0.1594656854867935,0.0
190_23rd_St-2026-04-09_01-22-17,5.010969482421875,-0.7287653062526136,-0.5512953273892403,0.7653893289685249,-0.1106751337647438,-0.3954026997089386,-0.1866650730371475,0.0
190_23rd_St-2026-04-09_01-22-17,5.020931396484375,-0.718522509983927,-0.5433931759625673,0.7194862404495477,-0.1465472877025604,-0.3736701011657715,-0.2072827666997909,0.0
190_23rd_St-2026-04-09_01-22-17,5.030893310546875,-0.7196364625751972,-0.5596317785799503,0.7131622981250285,-0.1803158968687057,-0.3319381177425384,-0.2202997654676437,0.0
190_23rd_St-2026-04-09_01-22-17,5.040855224609375,-0.6946707289490849,-0.5501303752630948,0.6691670890539884,-0.2057491838932037,-0.2846567332744598,-0.2395370751619339,0.0
190_23rd_St-2026-04-09_01-22-17,5.0508186035156255,-0.6238047563482075,-0.5695283186942338,0.5572942755430936,-0.2316260486841201,-0.2590866684913635,-0.2626208066940307,0.0
190_23rd_St-2026-04-09_01-22-17,5.0607802734375005,-0.555093331432715,-0.614021540415287,0.4827034372001886,-0.248005524277687,-0.2618251442909241,-0.2798516154289245,0.0
190_23rd_St-2026-04-09_01-22-17,5.0707421875000005,-0.5249801519155503,-0.6670517043352127,0.3676630995690822,-0.2574213743209839,-0.2837008535861969,-0.2892624139785766,0.0
190_23rd_St-2026-04-09_01-22-17,5.080704589843751,-0.4936995360542088,-0.740806676375866,0.2707359262555837,-0.2516115605831146,-0.3064019083976745,-0.282626748085022,0.0
190_23rd_St-2026-04-09_01-22-17,5.090666259765626,-0.48393633999601,-0.7734037085980177,0.2121165640264749,-0.2307414412498474,-0.3027054369449615,-0.2731392383575439,0.0
190_23rd_St-2026-04-09_01-22-17,5.100628417968751,-0.4856934127964079,-0.7949275581419467,0.1603945600956678,-0.2030186206102371,-0.2867096960544586,-0.2616070508956909,0.0
190_23rd_St-2026-04-09_01-22-17,5.110591552734375,-0.4720445344112813,-0.7928799779623746,0.1085439613491296,-0.178195834159851,-0.2681503891944885,-0.2565145790576935,0.0
190_23rd_St-2026-04-09_01-22-17,5.12055322265625,-0.4627658339343964,-0.7783774053573608,0.1161801553159952,-0.1569748222827911,-0.2486376911401748,-0.2503161430358886,0.0
190_23rd_St-2026-04-09_01-22-17,5.130515380859375,-0.4483169642779976,-0.7563233944594859,0.0921206498146057,-0.1357670128345489,-0.2301939874887466,-0.2497608959674835,0.0
190_23rd_St-2026-04-09_01-22-17,5.1404775390625,-0.4707661119733005,-0.7054518698781729,0.0632931992590427,-0.1041246429085731,-0.211101233959198,-0.2486027330160141,0.0
190_23rd_St-2026-04-09_01-22-17,5.150439208984375,-0.5067827433805913,-0.7103162610441446,0.0291477685511112,-0.0704835951328277,-0.1921254098415374,-0.2408798336982727,0.0
190_23rd_St-2026-04-09_01-22-17,5.1604013671875,-0.5317911471046507,-0.7600345239371061,-0.0186018246173858,-0.0345015749335289,-0.1794995814561844,-0.2285830974578857,0.0
190_23rd_St-2026-04-09_01-22-17,5.170363525390625,-0.5466816230487078,-0.8094120105683803,-0.0553238278150558,0.0012108797673135,-0.1683923453092575,-0.2160452008247375,0.0
190_23rd_St-2026-04-09_01-22-17,5.180326171875,-0.638634734276682,-0.8301257127732038,-0.085868603682518,0.0337843261659145,-0.1570468097925186,-0.2055112421512603,0.0
190_23rd_St-2026-04-09_01-22-17,5.1902883300781255,-0.6426655972279608,-0.8284305992931127,-0.0880406870245933,0.0612098276615142,-0.1454881578683853,-0.2123899310827255,0.0
190_23rd_St-2026-04-09_01-22-17,5.200250488281251,-0.7948343269005418,-0.836199479728937,-0.1363607735574245,0.0851873308420181,-0.1277722865343094,-0.2314879894256591,0.0
190_23rd_St-2026-04-09_01-22-17,5.210212402343751,-0.8459760467253625,-0.8070172243863344,-0.164226685604453,0.1072252541780471,-0.1096145883202552,-0.2601191103458404,0.0
190_23rd_St-2026-04-09_01-22-17,5.220174316406251,-0.8584490862641483,-0.8011024473845958,-0.1716933682233095,0.1304938793182373,-0.0881523787975311,-0.2972389757633209,0.0
190_23rd_St-2026-04-09_01-22-17,5.230136474609376,-0.92303809748739,-0.6633446665108204,-0.179594350606203,0.1518761366605758,-0.0705600678920745,-0.338104099035263,0.0
190_23rd_St-2026-04-09_01-22-17,5.240099365234375,-0.8998519407544284,-0.5708358941614627,-0.2508177583426237,0.1731693893671035,-0.0639940872788429,-0.3777424693107605,0.0
190_23rd_St-2026-04-09_01-22-17,5.250061279296875,-0.9224030144542456,-0.561551348465681,-0.2631546773463487,0.1990707665681839,-0.0681518167257309,-0.4014877378940582,0.0
190_23rd_St-2026-04-09_01-22-17,5.2600234375,-0.8887911791663616,-0.4206523469567299,-0.2659352479755878,0.2295484542846679,-0.0541818812489509,-0.41774982213974,0.0
190_23rd_St-2026-04-09_01-22-17,5.269985595703125,-0.8514306588694452,-0.3696943131357431,-0.2923988920092582,0.2678185999393463,-0.0289412401616573,-0.4262751340866089,0.0
190_23rd_St-2026-04-09_01-22-17,5.279947265625,-0.7521987157449126,-0.4312187491565942,-0.1937047090232372,0.3189910054206848,0.0193038024008274,-0.421170175075531,0.0
190_23rd_St-2026-04-09_01-22-17,5.2899091796875,-0.464490904161334,-0.6580185030519962,0.0796235718131065,0.3790301084518432,0.1195084378123283,-0.3959399163722992,0.0
190_23rd_St-2026-04-09_01-22-17,5.2998725585937505,-0.1327060504421591,-0.9784124864459036,0.4497527692347765,0.4278946816921234,0.2671227753162384,-0.3481037318706512,0.0
190_23rd_St-2026-04-09_01-22-17,5.3098342285156255,0.0171557905275374,-1.177721591347456,0.6260679520398378,0.4271966516971588,0.3572124540805816,-0.2983124852180481,0.0
190_23rd_St-2026-04-09_01-22-17,5.3197961425781255,0.0493692302595824,-1.300478786966205,0.6614186668843031,0.3798993825912475,0.3137938976287842,-0.2655955553054809,0.0
190_23rd_St-2026-04-09_01-22-17,5.329758544921876,-0.0966327204115688,-1.260396951946616,0.5757137293308973,0.2949447929859161,0.1555241197347641,-0.2644988894462585,0.0
190_23rd_St-2026-04-09_01-22-17,5.339720214843751,-0.4674073761299252,-1.175896129485965,0.2777233009248971,0.1798762679100036,-0.0983748733997345,-0.3037935495376587,0.0
190_23rd_St-2026-04-09_01-22-17,5.349682373046876,-0.8656092602171004,-1.1061404562145472,-0.259172329711914,0.0554840043187141,-0.4316346049308777,-0.3910903632640838,0.0
190_23rd_St-2026-04-09_01-22-17,5.3596455078125,-1.2099001789618282,-0.9372668215870856,-0.8168933062344789,-0.0412192344665527,-0.7624435424804688,-0.5200911164283752,0.0
190_23rd_St-2026-04-09_01-22-17,5.369607421875,-1.5530767067238689,-0.6285773045122623,-1.1492080290466546,-0.0809535980224609,-0.9412587881088256,-0.6714449524879456,0.0
190_23rd_St-2026-04-09_01-22-17,5.3795693359375,-1.7953467092126607,-0.2289572241902351,-1.4184259519547224,-0.0660209506750106,-0.939221203327179,-0.8096164464950562,0.0
190_23rd_St-2026-04-09_01-22-17,5.389531494140625,-1.7797747538104651,0.1230202304691076,-1.5665665951550003,0.0007969582802616,-0.7999991178512573,-0.910201370716095,0.0
190_23rd_St-2026-04-09_01-22-17,5.399493408203125,-1.4705769949525591,0.2308189264088869,-1.204808920237422,0.1219776943325996,-0.5460933446884155,-0.943309247493744,0.0
190_23rd_St-2026-04-09_01-22-17,5.409455322265625,-1.1868119296453892,0.7778262012153864,-1.2772241681069134,0.2570457756519317,-0.2435774505138397,-0.8857340812683105,0.0
190_23rd_St-2026-04-09_01-22-17,5.4194184570312505,-0.9341397756077348,1.1960241407573222,-0.621856471824646,0.407964289188385,-0.0247748102992773,-0.8278692960739136,0.0
190_23rd_St-2026-04-09_01-22-17,5.4293803710937505,-0.3310619462721049,0.8705348800510168,0.0464186368256807,0.5249154567718506,0.2468162178993225,-0.7214467525482178,0.0
190_23rd_St-2026-04-09_01-22-17,5.4393422851562505,-0.3974073727086186,0.8983429244309663,0.0024298574954271,0.5798218846321106,0.3574469685554504,-0.5548697710037231,0.0
190_23rd_St-2026-04-09_01-22-17,5.449304443359376,0.2033189250648021,0.7963637284249067,0.4552648106545209,0.5827380418777466,0.2722782790660858,-0.3876879811286926,0.0
190_23rd_St-2026-04-09_01-22-17,5.459266357421876,0.2162074866019189,0.8082593334019184,0.6910907515704632,0.571139931678772,0.1417401582002639,-0.2751407027244568,0.0
190_23rd_St-2026-04-09_01-22-17,5.469228271484376,0.3383352982759475,0.5988397533744573,0.686439710894227,0.556871771812439,-0.023938013240695,-0.2153237164020538,0.0
190_23rd_St-2026-04-09_01-22-17,5.47919140625,0.3709679863333702,0.394058939063549,0.7003168450772762,0.5322429537773132,-0.2070198804140091,-0.1953792721033096,0.0
190_23rd_St-2026-04-09_01-22-17,5.4891533203125,0.310088862478733,0.3352876011431217,0.6425023694902658,0.4901368021965027,-0.3823828995227813,-0.2184473127126693,0.0
190_23rd_St-2026-04-09_01-22-17,5.499115234375,0.1499871478497982,0.3809937057852745,0.4842658642113208,0.4265976548194885,-0.5504413843154907,-0.2885520756244659,0.0
190_23rd_St-2026-04-09_01-22-17,5.509077392578125,-0.0316347630612552,0.4709434413015842,0.3596785305559635,0.3428258001804352,-0.6890349388122559,-0.3845212161540985,0.0
190_23rd_St-2026-04-09_01-22-17,5.51903955078125,-0.1891321404106914,0.6159603995233773,0.1978787798374891,0.2530737817287445,-0.7933186292648315,-0.4830946028232574,0.0
190_23rd_St-2026-04-09_01-22-17,5.529001220703125,-0.3009010551556945,0.7692407436996698,0.0281862300425767,0.1561440527439117,-0.8458039164543152,-0.5553259253501892,0.0
190_23rd_St-2026-04-09_01-22-17,5.538963134765625,-0.3460118242532015,0.8986416151165961,-0.1615139195144176,0.0650052055716514,-0.8579980134963989,-0.5850312113761902,0.0
190_23rd_St-2026-04-09_01-22-17,5.5489265136718755,-0.3859492823660373,1.0102636687368154,-0.316437354722619,-0.0076519530266523,-0.8338245153427124,-0.5734944343566895,0.0
190_23rd_St-2026-04-09_01-22-17,5.5588884277343755,-0.4048579809755087,1.0972060391306877,-0.4815443302929401,-0.0568672828376293,-0.7825931310653687,-0.5342773795127869,0.0
190_23rd_St-2026-04-09_01-22-17,5.5688500976562505,-0.3876309518426656,1.1355839928418396,-0.6201409000784158,-0.0821364223957061,-0.7234826683998108,-0.4776769578456878,0.0
190_23rd_St-2026-04-09_01-22-17,5.578812500000001,-0.3736094407528638,1.1395692630857228,-0.7190040098905562,-0.0852754861116409,-0.6618918776512146,-0.4099610447883606,0.0
190_23rd_St-2026-04-09_01-22-17,5.588774414062501,-0.3589776888102293,1.141745438081026,-0.7683949405252933,-0.0729647576808929,-0.6013265252113342,-0.3345802724361419,0.0
190_23rd_St-2026-04-09_01-22-17,5.598736328125001,-0.363342313760519,1.09419925853014,-0.7816010435789823,-0.0471272133290767,-0.5441968441009521,-0.2647207677364349,0.0
190_23rd_St-2026-04-09_01-22-17,5.608699462890625,-0.3740886025719344,1.0226917731553316,-0.7782745295047759,-0.0173280425369739,-0.5033879280090332,-0.2030829489231109,0.0
190_23rd_St-2026-04-09_01-22-17,5.618661376953125,-0.3847334768354892,0.9396604387253522,-0.7229138768106699,0.0179472658783197,-0.4762822389602661,-0.1536860018968582,0.0
190_23rd_St-2026-04-09_01-22-17,5.628623291015625,-0.3958082669489085,0.8792413335978985,-0.6359007792681455,0.0631730705499649,-0.4456460475921631,-0.1149402037262916,0.0
190_23rd_St-2026-04-09_01-22-17,5.63858544921875,-0.4096260721601545,0.8008218768775462,-0.4816682489335536,0.1174816563725471,-0.4029830396175384,-0.0882180109620094,0.0
190_23rd_St-2026-04-09_01-22-17,5.64854736328125,-0.4029107924304902,0.7088041029155254,-0.3163052527755499,0.1714088022708892,-0.3657075762748718,-0.0706246346235275,0.0
190_23rd_St-2026-04-09_01-22-17,5.65850927734375,-0.413049324607104,0.6424643755674362,-0.1460281810909509,0.2042205184698104,-0.347833514213562,-0.0597855262458324,0.0
190_23rd_St-2026-04-09_01-22-17,5.6684724121093755,-0.3988379900336265,0.540849921220541,-0.071852937811613,0.2213664799928665,-0.3649323284626007,-0.056204903870821,0.0
190_23rd_St-2026-04-09_01-22-17,5.6784343261718755,-0.4768645019136369,0.4632967259407043,0.0350339039802551,0.227890208363533,-0.4099035263061523,-0.0608421452343463,0.0
190_23rd_St-2026-04-09_01-22-17,5.688396484375001,-0.4542651320926845,0.4769803833782672,0.0234568634331226,0.2303400486707687,-0.461789608001709,-0.0767012611031532,0.0
190_23rd_St-2026-04-09_01-22-17,5.698358398437501,-0.7722706859800964,0.3318313232094049,0.0229243639916181,0.2281664460897445,-0.518593966960907,-0.1106389164924621,0.0
190_23rd_St-2026-04-09_01-22-17,5.708320312500001,-0.8648463130205869,0.2722925080478191,-0.0730517922073602,0.2276735007762909,-0.5935822129249573,-0.1535706669092178,0.0
190_23rd_St-2026-04-09_01-22-17,5.718282226562501,-0.9422871339671314,0.2254980236470699,-0.1378302615880966,0.2285567820072174,-0.6645890474319458,-0.2085471302270889,0.0
190_23rd_St-2026-04-09_01-22-17,5.728245361328125,-1.025008379534632,0.1786801583707332,-0.2021381908476352,0.2329272925853729,-0.7196176648139954,-0.2747213542461395,0.0
190_23rd_St-2026-04-09_01-22-17,5.738207275390625,-1.0431059078916909,0.1306388887792825,-0.2540729607462882,0.2415621429681778,-0.7437646389007568,-0.3408603966236114,0.0
190_23rd_St-2026-04-09_01-22-17,5.74816943359375,-1.058140614612028,0.1415495743721723,-0.3086088530540466,0.247199535369873,-0.7417203783988953,-0.401859313249588,0.0
190_23rd_St-2026-04-09_01-22-17,5.75813134765625,-1.0439850288137793,0.1524111601263284,-0.319147198203206,0.242610901594162,-0.7313094735145569,-0.4567334949970245,0.0
190_23rd_St-2026-04-09_01-22-17,5.768093505859375,-0.991086674579978,0.0836000742286443,-0.3393903602868318,0.2221708744764328,-0.7091841697692871,-0.503278911113739,0.0
190_23rd_St-2026-04-09_01-22-17,5.778055419921875,-0.9577360475115476,0.0474170002132654,-0.3639426177412271,0.1902250349521637,-0.6824437975883484,-0.5388315916061401,0.0
190_23rd_St-2026-04-09_01-22-17,5.788018310546875,-0.9095362263575196,0.0324959099352359,-0.410534273046255,0.1511596590280532,-0.6581349968910217,-0.5686509609222412,0.0
190_23rd_St-2026-04-09_01-22-17,5.7979804687500005,-0.8724910556200891,0.0079752166628837,-0.51574879771173,0.1039523407816886,-0.6427599787712097,-0.598030149936676,0.0
190_23rd_St-2026-04-09_01-22-17,5.807943359375001,-0.8318047519013285,0.0082043492436408,-0.6459791056901216,0.0542335174977779,-0.640348494052887,-0.6313880681991577,0.0
190_23rd_St-2026-04-09_01-22-17,5.817905517578125,-0.8399350860606879,0.0036678748577833,-0.6419020655095576,0.0186752751469612,-0.6631531715393066,-0.67208331823349,0.0
190_23rd_St-2026-04-09_01-22-17,5.827867431640625,-0.812798584266752,0.0904722980856895,-1.016542018353939,0.0012097316794097,-0.7061919569969177,-0.7201680541038513,0.0
190_23rd_St-2026-04-09_01-22-17,5.837829345703125,-0.8495638420842587,0.1849783817321062,-1.1320721853286029,0.0076516354456543,-0.7499828338623047,-0.7735934257507324,0.0
190_23rd_St-2026-04-09_01-22-17,5.84779150390625,-0.8424846974782645,0.2681178527116775,-1.212144085431099,0.0308504328131675,-0.7833437323570251,-0.8168788552284241,0.0
190_23rd_St-2026-04-09_01-22-17,5.857754150390625,-0.7767565992224961,0.3004273001641035,-1.1907213581740856,0.0719328671693801,-0.7897031307220459,-0.8375576734542847,0.0
190_23rd_St-2026-04-09_01-22-17,5.86771630859375,-0.6892721578411758,0.2924824786394834,-1.0840899524480103,0.1200426071882247,-0.7617362141609192,-0.8244197368621826,0.0
190_23rd_St-2026-04-09_01-22-17,5.877678466796875,-0.5956161151528359,0.2570586985588073,-0.9438017763137816,0.1697338670492172,-0.7124238014221191,-0.7791381478309631,0.0
190_23rd_St-2026-04-09_01-22-17,5.887640380859375,-0.5465019556328654,0.2050450182050466,-0.7815472675651312,0.2090644985437393,-0.6743813753128052,-0.7200101017951965,0.0
190_23rd_St-2026-04-09_01-22-17,5.897602294921875,-0.4642363448783755,0.0604302110433578,-0.6193640704870224,0.2293631583452224,-0.6608736515045166,-0.6661025881767273,0.0
190_23rd_St-2026-04-09_01-22-17,5.907564208984375,-0.2059367063477635,-0.2655938871920109,-0.3450122918218374,0.2348676472902298,-0.6359557509422302,-0.6202328205108643,0.0
190_23rd_St-2026-04-09_01-22-17,5.917527587890626,0.0320406404484063,-0.6149146898627281,-0.1436573603063821,0.2201230227947235,-0.5754279494285583,-0.569698691368103,0.0
190_23rd_St-2026-04-09_01-22-17,5.927489257812501,0.0760899177942425,-0.7691179941028357,0.0131517425179481,0.1728564351797104,-0.5134027004241943,-0.5223857760429382,0.0
190_23rd_St-2026-04-09_01-22-17,5.937451416015625,-0.0726345166433602,-0.6428986753314733,0.0501093080371618,0.0801138877868652,-0.4968624413013458,-0.4983219504356384,0.0
190_23rd_St-2026-04-09_01-22-17,5.94741357421875,-0.3059123805116862,-0.4582406115949153,-0.1033259344398975,-0.0574682131409645,-0.5752089023590088,-0.519341766834259,0.0
190_23rd_St-2026-04-09_01-22-17,5.957375244140625,-0.5315579228706657,-0.3081803985089063,-0.3086135292291641,-0.1941010057926178,-0.721503496170044,-0.5837612152099609,0.0
190_23rd_St-2026-04-09_01-22-17,5.96733740234375,-0.6408258876454085,-0.1878051295906305,-0.6401251189649104,-0.3018178641796112,-0.8675221800804138,-0.6752104163169861,0.0
190_23rd_St-2026-04-09_01-22-17,5.977300537109375,-0.6569874064385891,-0.058909869608283,-1.0073357985913751,-0.3423584699630737,-0.9828999042510986,-0.78078293800354,0.0
190_23rd_St-2026-04-09_01-22-17,5.98726220703125,-0.624345219900459,0.1105091239422559,-1.2872796981751915,-0.2958650290966034,-1.0264846086502075,-0.8690493702888489,0.0
190_23rd_St-2026-04-09_01-22-17,5.997224365234375,-0.5892163311131298,0.3200216429501771,-1.558589040404558,-0.178109735250473,-1.0151326656341553,-0.922042191028595,0.0
190_23rd_St-2026-04-09_01-22-17,6.0071865234375,-0.4932891286224126,0.5231406615287065,-1.62121237757802,-0.0146105531603097,-0.9759482741355896,-0.9235263466835022,0.0
190_23rd_St-2026-04-09_01-22-17,6.017148193359375,-0.3280504164312035,0.6358873352646828,-1.4799585712820291,0.1675367057323455,-0.90000319480896,-0.8696540594100952,0.0
190_23rd_St-2026-04-09_01-22-17,6.0271103515625,-0.1272227967254817,0.6306710619211197,-1.2001344986855984,0.3423575162887573,-0.7930482625961304,-0.7646474838256836,0.0
190_23rd_St-2026-04-09_01-22-17,6.037073486328126,0.0795361857905983,0.5845072766393423,-0.8338894492208957,0.4787264764308929,-0.6735417246818542,-0.6278961300849915,0.0
190_23rd_St-2026-04-09_01-22-17,6.047035400390626,0.2281343635000288,0.4871019644200801,-0.4419301127851009,0.5516891479492188,-0.5736523866653442,-0.4991597533226013,0.0
190_23rd_St-2026-04-09_01-22-17,6.056997314453126,0.3029348260056227,0.3781342247009277,-0.0858645120292902,0.5567290186882019,-0.4895030260086059,-0.4016704261302948,0.0
190_23rd_St-2026-04-09_01-22-17,6.06695947265625,0.2758652519680559,0.2727238852024078,0.1407844352185726,0.5061633586883545,-0.4365860223770141,-0.3483547568321228,0.0
190_23rd_St-2026-04-09_01-22-17,6.07692138671875,0.1800123568225652,0.200762226319313,0.3104553577035665,0.4072203338146209,-0.4130704998970032,-0.3353315889835357,0.0
190_23rd_St-2026-04-09_01-22-17,6.08688330078125,0.0717089992962777,0.1307826811641454,0.3498299212366342,0.2817705273628235,-0.4082009196281433,-0.3568744361400604,0.0
190_23rd_St-2026-04-09_01-22-17,6.096846435546875,-0.0061157794665545,-0.0057306526064872,0.2862871311306953,0.1331261843442917,-0.4179756343364715,-0.3985733985900879,0.0
190_23rd_St-2026-04-09_01-22-17,6.106808349609375,-0.019988529735431,-0.0812280844002962,0.0856622674554586,-0.0214460790157318,-0.4471505880355835,-0.4510672092437744,0.0
190_23rd_St-2026-04-09_01-22-17,6.116770263671875,-0.0089311291482299,-0.09356734149158,-0.1923550479799509,-0.1450487226247787,-0.4984852969646454,-0.5084479451179504,0.0
190_23rd_St-2026-04-09_01-22-17,6.126732421875,0.0384014076519757,-0.0924216785877942,-0.4912397948771715,-0.2101560831069946,-0.5431952476501465,-0.5555688738822937,0.0
190_23rd_St-2026-04-09_01-22-17,6.136694580078125,0.0479994762763381,-0.0880289965867996,-0.6744324622362852,-0.2101649045944214,-0.5525309443473816,-0.5709338188171387,0.0
190_23rd_St-2026-04-09_01-22-17,6.14665625,-0.0230895644906908,-0.0975403367757797,-0.8093529738575219,-0.1676965504884719,-0.5422834157943726,-0.5455118417739868,0.0
190_23rd_St-2026-04-09_01-22-17,6.1566181640625,-0.1131508706226944,-0.1178027880817651,-0.8675584945887327,-0.1078894510865211,-0.5430855751037598,-0.4821124970912933,0.0
190_23rd_St-2026-04-09_01-22-17,6.166581542968751,-0.1798234831869602,-0.1644721847981214,-0.7801753946900367,-0.0438646599650383,-0.5448595285415649,-0.401446670293808,0.0
190_23rd_St-2026-04-09_01-22-17,6.176543212890626,-0.1921675625838339,-0.1962251674115657,-0.6632780310153961,0.0196240507066249,-0.5508987903594971,-0.3253817856311798,0.0
190_23rd_St-2026-04-09_01-22-17,6.18650537109375,-0.2073250189010053,-0.1582464421510696,-0.5443593906462192,0.0826056823134422,-0.5747995972633362,-0.2793375849723816,0.0
190_23rd_St-2026-04-09_01-22-17,6.196467529296875,-0.247826979028806,-0.1040121631383895,-0.3757487908691168,0.1344157755374908,-0.6102376580238342,-0.2794823944568634,0.0
190_23rd_St-2026-04-09_01-22-17,6.20642919921875,-0.2794392379973083,-0.0638905806303024,-0.2374409748971462,0.170510932803154,-0.6438113451004028,-0.3029981255531311,0.0
190_23rd_St-2026-04-09_01-22-17,6.216391357421875,-0.2410973054476082,-0.0154530051976442,-0.1361339790642261,0.196273386478424,-0.661409318447113,-0.3224235475063324,0.0
190_23rd_St-2026-04-09_01-22-17,6.2263544921875,-0.2137193961132317,0.009833996272087,-0.0501040473401546,0.2128361165523529,-0.6697750687599182,-0.3191936612129211,0.0
190_23rd_St-2026-04-09_01-22-17,6.23631640625,-0.1358667064301669,0.0110708445906639,0.0372778835147619,0.2261205613613128,-0.6553634405136108,-0.292892724275589,0.0
190_23rd_St-2026-04-09_01-22-17,6.2462783203125,-0.0801516142752021,0.0190139125496149,0.1244569852739572,0.2492346614599228,-0.6106199622154236,-0.2427510023117065,0.0
190_23rd_St-2026-04-09_01-22-17,6.256240478515625,-0.1238355654399842,0.061629065439105,0.1892839699715375,0.2770396769046783,-0.5591115951538086,-0.1888574361801147,0.0
190_23rd_St-2026-04-09_01-22-17,6.266202392578125,-0.102634371979162,0.0779261202454566,0.1734364124983549,0.2996706664562225,-0.5045053362846375,-0.1353108584880828,0.0
190_23rd_St-2026-04-09_01-22-17,6.276164306640625,-0.2815023810721934,-0.00911971052289,0.4412842160969972,0.3218390345573425,-0.4436202645301819,-0.0972244590520858,0.0
190_23rd_St-2026-04-09_01-22-17,6.286127441406251,-0.3649147507090121,-0.0490858102083206,0.567498858693242,0.3435110449790954,-0.3923392295837402,-0.0716186985373497,0.0
190_23rd_St-2026-04-09_01-22-17,6.296089355468751,-0.4185965104054659,-0.0703489629894495,0.7015075161665678,0.3628712594509125,-0.3567956387996673,-0.0621940977871418,0.0
190_23rd_St-2026-04-09_01-22-17,6.306051269531251,-0.4820467999223619,-0.073514733543992,0.8355635199129581,0.3780795037746429,-0.3386478126049042,-0.0701436400413513,0.0
190_23rd_St-2026-04-09_01-22-17,6.316013427734375,-0.5145928326096385,-0.0632581279456615,0.9366180022895336,0.3876253366470337,-0.3463215827941894,-0.0881537571549415,0.0
190_23rd_St-2026-04-09_01-22-17,6.325975341796875,-0.5654742209978402,-0.0599812982320785,0.991481811377406,0.3900631964206695,-0.3754778802394867,-0.1115411072969436,0.0
190_23rd_St-2026-04-09_01-22-17,6.335937255859375,-0.5872089368134736,-0.0505237340569496,1.0351146168768406,0.3853734135627746,-0.4130399525165558,-0.1365872472524643,0.0
190_23rd_St-2026-04-09_01-22-17,6.345900390625,-0.5960187776695937,-0.0397621015459299,1.0672153900146484,0.3827800154685974,-0.4444718956947326,-0.1614941954612732,0.0
190_23rd_St-2026-04-09_01-22-17,6.3558623046875,-0.5548956899687647,-0.0113531686633825,1.0675427222728728,0.381052702665329,-0.4648219048976898,-0.1891583055257797,0.0
190_23rd_St-2026-04-09_01-22-17,6.36582421875,-0.4854247519228607,0.0317296017378568,1.048873677638173,0.3786561191082001,-0.4803007543087005,-0.2188272625207901,0.0
190_23rd_St-2026-04-09_01-22-17,6.375786376953125,-0.4531440921735018,0.0564759204596281,1.049089950737357,0.3705123662948608,-0.473035603761673,-0.2494528144598007,0.0
190_23rd_St-2026-04-09_01-22-17,6.38574853515625,-0.4116701452083885,0.0955079541653394,1.045017002210021,0.3568391501903534,-0.4598042368888855,-0.274517148733139,0.0
190_23rd_St-2026-04-09_01-22-17,6.395710205078125,-0.3810346223175525,0.1542734468668699,0.999933997902274,0.3374258279800415,-0.4408290088176727,-0.2872920036315918,0.0
190_23rd_St-2026-04-09_01-22-17,6.405672119140625,-0.3843467425402254,0.1538467458873987,0.9273135828495024,0.3128885328769684,-0.4288719296455383,-0.288876324892044,0.0
190_23rd_St-2026-04-09_01-22-17,6.415635498046876,-0.3821202986624091,0.1284855101376771,0.8587742996305227,0.2901001274585724,-0.4186132848262787,-0.2820741236209869,0.0
190_23rd_St-2026-04-09_01-22-17,6.425597412109376,-0.4109693765278905,0.1421802734911441,0.7440905203521251,0.2731208801269531,-0.4052871167659759,-0.27511927485466,0.0
190_23rd_St-2026-04-09_01-22-17,6.435559326171875,-0.4490103533696383,0.1581213544666767,0.6344727922916412,0.2603231370449066,-0.3954441547393799,-0.272612601518631,0.0
190_23rd_St-2026-04-09_01-22-17,6.445521484375,-0.472949666557461,0.1086164420634508,0.5601034877449274,0.2569614052772522,-0.3852903246879577,-0.2709742188453674,0.0
190_23rd_St-2026-04-09_01-22-17,6.4554833984375,-0.4977768684957176,0.098194416770339,0.5329249734401702,0.259237140417099,-0.3564409911632538,-0.2649796307086944,0.0
190_23rd_St-2026-04-09_01-22-17,6.4654453125,-0.4357821115493774,0.0448135397166013,0.5772913539111614,0.2714589238166809,-0.3028270304203033,-0.2459441572427749,0.0
190_23rd_St-2026-04-09_01-22-17,6.475408447265625,-0.2822906088404357,-0.0780704971522092,0.8037889099895954,0.2844990491867065,-0.2035581916570663,-0.2109007686376571,0.0
190_23rd_St-2026-04-09_01-22-17,6.485370361328125,-0.0236110310815274,-0.2153290963321924,1.0686702649980784,0.2777519226074219,-0.0638415664434433,-0.1523080319166183,0.0
190_23rd_St-2026-04-09_01-22-17,6.495332275390625,0.1400453072890639,-0.2779793215125799,1.2644774992585182,0.2307724505662918,0.0599915757775306,-0.0776178613305091,0.0
190_23rd_St-2026-04-09_01-22-17,6.50529443359375,0.1640498677328228,-0.3413835799306631,1.3810188891023396,0.1448799222707748,0.1151541694998741,-0.0058294297195971,0.0
190_23rd_St-2026-04-09_01-22-17,6.51525634765625,0.1220696517460048,-0.4910749597042799,1.288051267069578,0.0245766714215278,0.1031382530927658,0.0585213303565979,0.0
190_23rd_St-2026-04-09_01-22-17,6.52521826171875,0.004917509592697,-0.6210159293472767,1.0855915891826151,-0.1152587234973907,-0.0014613971579819,0.0900590196251869,0.0
190_23rd_St-2026-04-09_01-22-17,6.535181396484376,-0.1597454485371708,-0.6802811882644891,0.7974749045372009,-0.2503992319107055,-0.1517381221055984,0.0696059763431549,0.0
190_23rd_St-2026-04-09_01-22-17,6.545143310546876,-0.323366715594381,-0.6538923630326986,0.407244583851099,-0.3661293089389801,-0.3195353746414184,-0.0006735094939358,0.0
190_23rd_St-2026-04-09_01-22-17,6.55510546875,-0.4809229835242032,-0.5217921695291996,-0.020955109745264,-0.4447155892848968,-0.4628404974937439,-0.1117625758051872,0.0
190_23rd_St-2026-04-09_01-22-17,6.5650673828125,-0.6319414471831173,-0.3387795349121094,-0.4935305361628532,-0.4705645143985748,-0.5882953405380249,-0.2436740100383758,0.0
190_23rd_St-2026-04-09_01-22-17,6.575029296875,-0.7861705434516072,-0.1062315927535295,-0.7831465194553137,-0.4493291079998016,-0.6645281314849854,-0.352221816778183,0.0
190_23rd_St-2026-04-09_01-22-17,6.584991455078125,-0.8331710718184709,0.1187637420684099,-0.9976724827110768,-0.4037088751792907,-0.6571495532989502,-0.4093173146247864,0.0
190_23rd_St-2026-04-09_01-22-17,6.594954345703125,-0.8465362378913909,0.3290092515259981,-1.1844517763853073,-0.3498007953166961,-0.6101847887039185,-0.4192924797534942,0.0
190_23rd_St-2026-04-09_01-22-17,6.604916259765625,-0.8434509852271527,0.3066284928917884,-1.15510994656682,-0.2953444719314575,-0.5257663130760193,-0.3769106864929199,0.0
190_23rd_St-2026-04-09_01-22-17,6.61487841796875,-0.775298509368673,0.5366694206655025,-1.3515274216800928,-0.2271953821182251,-0.4214042127132416,-0.3022767901420593,0.0
190_23rd_St-2026-04-09_01-22-17,6.62484033203125,-0.8170558033198118,0.6961684932261705,-1.3806442105710506,-0.1418914049863815,-0.3121435046195984,-0.2140284329652786,0.0
190_23rd_St-2026-04-09_01-22-17,6.634802490234375,-0.8701995836820453,0.8673065656542778,-1.4087205504983662,-0.0421810671687126,-0.2201562076807022,-0.1310362964868545,0.0
190_23rd_St-2026-04-09_01-22-17,6.644764404296875,-0.9802681973151862,0.9462386480718852,-1.335882693302631,0.0752038806676864,-0.1554230153560638,-0.0530943647027015,0.0
190_23rd_St-2026-04-09_01-22-17,6.65472607421875,-1.0417875918347388,0.9788795194357632,-1.203233049222827,0.1972718983888626,-0.1126090660691261,0.0083775389939546,0.0
190_23rd_St-2026-04-09_01-22-17,6.664689453125001,-1.0519714975230394,0.9378209483385086,-1.0416899036139249,0.3170025646686554,-0.1069842055439949,0.0505143404006958,0.0
190_23rd_St-2026-04-09_01-22-17,6.674651367187501,-1.0295847475394606,0.858439953109622,-0.8509814537972211,0.4232766628265381,-0.1388542503118515,0.0739161744713783,0.0
190_23rd_St-2026-04-09_01-22-17,6.684613037109376,-0.9839194132991136,0.8170493735790252,-0.5671779561758041,0.5193832516670227,-0.1812762767076492,0.076516218483448,0.0
190_23rd_St-2026-04-09_01-22-17,6.694575439453125,-0.953506593248248,0.7749187893360853,-0.2704886734962463,0.5960391759872437,-0.213633120059967,0.0550001785159111,0.0
190_23rd_St-2026-04-09_01-22-17,6.704537353515625,-0.9408663804490118,0.7029238127052784,0.0272018951803445,0.6397930383682251,-0.2394769638776779,0.0198917295783758,0.0
190_23rd_St-2026-04-09_01-22-17,6.714499267578125,-0.9364021675817668,0.6279863528817892,0.2363175238251686,0.6403507590293884,-0.2687654197216034,-0.0230643954128026,0.0
190_23rd_St-2026-04-09_01-22-17,6.72446240234375,-0.9555248012028634,0.5819125839710235,0.348875396990776,0.5876470804214478,-0.3176903426647186,-0.0673602148890495,0.0
190_23rd_St-2026-04-09_01-22-17,6.73442431640625,-0.935334099958837,0.5033458277344703,0.4721680146604776,0.4964525401592254,-0.3849515914916992,-0.1248158141970634,0.0
190_23rd_St-2026-04-09_01-22-17,6.744386474609375,-0.8566058695502579,0.4009674032777547,0.5265647907584905,0.3771695494651794,-0.442838042974472,-0.1843212097883224,0.0
190_23rd_St-2026-04-09_01-22-17,6.754348388671875,-0.8083578253403305,0.3404208723783493,0.3987701854944229,0.2410853654146194,-0.5279314517974854,-0.2500466108322143,0.0
190_23rd_St-2026-04-09_01-22-17,6.764310302734375,-0.8201677247952669,0.3010369564950466,0.1909013420403003,0.0950969979166984,-0.6472083330154419,-0.3275262415409088,0.0
190_23rd_St-2026-04-09_01-22-17,6.7742724609375005,-0.8092587927680462,0.3001946604520082,0.1932815151751041,-0.0399512611329555,-0.7829566597938538,-0.4135828912258148,0.0
190_23rd_St-2026-04-09_01-22-17,6.784235351562501,-0.834839151161164,0.2362549799829721,-0.4340928432881832,-0.1394360363483429,-0.9086794257164,-0.4931357502937317,0.0
190_23rd_St-2026-04-09_01-22-17,6.794197265625001,-0.8968615998320281,0.2796457934200763,-0.7488140417426824,-0.1887059658765792,-1.0196839570999146,-0.5543060898780823,0.0
190_23rd_St-2026-04-09_01-22-17,6.804159423828125,-1.0078115994095802,0.3765273740261793,-0.997545056939125,-0.1974413990974426,-1.111119270324707,-0.5946516990661621,0.0
190_23rd_St-2026-04-09_01-22-17,6.814120849609376,-1.1607203337945042,0.3941337578654289,-1.1830968546450138,-0.1711039096117019,-1.183582782745361,-0.6137810945510864,0.0
190_23rd_St-2026-04-09_01-22-17,6.8240830078125,-1.2192112473383545,0.3506511744916439,-1.157819790047407,-0.1193400546908378,-1.201777696609497,-0.6191892027854919,0.0
190_23rd_St-2026-04-09_01-22-17,6.834044921875,-1.1383411825954914,0.2919464720666408,-0.9580641104221344,-0.0620694123208522,-1.1426972150802612,-0.6111626029014587,0.0
190_23rd_St-2026-04-09_01-22-17,6.844006591796875,-1.0934244747653603,0.3679366558134556,-0.5981441723257303,-0.0271465834230184,-1.0163267850875854,-0.6155394911766052,0.0
190_23rd_St-2026-04-09_01-22-17,6.853969970703125,-0.8840405505731701,0.4585439784556627,-0.2908744589209556,-0.0466120690107345,-0.8602746725082397,-0.6433932185173035,0.0
190_23rd_St-2026-04-09_01-22-17,6.863931884765625,-0.6049530851555988,0.4786801730334759,-0.0484124409914016,-0.1261830627918243,-0.7216441035270691,-0.682201087474823,0.0
190_23rd_St-2026-04-09_01-22-17,6.8738935546875,-0.3826648904005065,0.5793213984340428,0.1304945118725299,-0.2454324513673782,-0.6027092933654785,-0.7169780731201172,0.0
190_23rd_St-2026-04-09_01-22-17,6.88385595703125,-0.2207863022921606,0.7163461888581514,0.1041080247282981,-0.3677762150764465,-0.50860595703125,-0.737537145614624,0.0
190_23rd_St-2026-04-09_01-22-17,6.89381787109375,-0.0248194204906001,0.7437561738312244,-0.0294189867079257,-0.4555871486663818,-0.4508097469806671,-0.7364936470985413,0.0
190_23rd_St-2026-04-09_01-22-17,6.90377978515625,0.2106993176396936,0.5937105737924575,-0.2712678411751985,-0.4804078042507171,-0.4400449991226196,-0.6957587003707886,0.0
190_23rd_St-2026-04-09_01-22-17,6.913742919921876,0.3243404559973627,0.4063783224105834,-0.4584615608692169,-0.4501453340053558,-0.4768485128879547,-0.6201648712158203,0.0
190_23rd_St-2026-04-09_01-22-17,6.923704833984376,0.3199891289200633,0.2977396685153246,-0.5158505045205355,-0.375117689371109,-0.5205643177032471,-0.5440730452537537,0.0
190_23rd_St-2026-04-09_01-22-17,6.933666748046876,0.2852514314074069,0.2372691254615783,-0.4949105923444032,-0.2748345136642456,-0.5473417043685913,-0.4897370934486389,0.0
190_23rd_St-2026-04-09_01-22-17,6.943628906250001,0.2696303031012416,0.1378285080224275,-0.4352653941988945,-0.1788746863603592,-0.5846443176269531,-0.4615371525287628,0.0
190_23rd_St-2026-04-09_01-22-17,6.9535908203125,0.2646145938310772,0.0594587356626987,-0.2365799741536378,-0.1110473871231079,-0.6191740036010742,-0.4542258381843567,0.0
190_23rd_St-2026-04-09_01-22-17,6.963552978515625,0.2675945594899356,-0.013364508485794,-0.0393359850883483,-0.0809965431690216,-0.6344278454780579,-0.463056355714798,0.0
190_23rd_St-2026-04-09_01-22-17,6.973515869140625,0.2153397638566792,-0.0209732299238443,0.0924450594633817,-0.0879513025283813,-0.6375396847724915,-0.4849262237548828,0.0
190_23rd_St-2026-04-09_01-22-17,6.983477783203125,0.1862684215426445,-0.0091992054998874,0.1444996563494205,-0.1199574396014213,-0.6283296346664429,-0.5159326195716858,0.0
190_23rd_St-2026-04-09_01-22-17,6.99343994140625,0.2309227521095424,-0.0083422964096069,0.1809001725077628,-0.1626217812299728,-0.6010672450065613,-0.5586037635803223,0.0
190_23rd_St-2026-04-09_01-22-17,7.00340185546875,0.3096807931344956,-0.0051402854979038,0.1290846450746059,-0.2067199945449829,-0.5710906982421875,-0.5956493616104126,0.0
190_23rd_St-2026-04-09_01-22-17,7.01336376953125,0.5177458167478441,-0.0268751474440097,0.0425777434885501,-0.2421670407056808,-0.5372956991195679,-0.6297607421875,0.0
190_23rd_St-2026-04-09_01-22-17,7.023325927734375,0.6589403671372681,-0.0633668490171432,-0.0312269129127264,-0.2567651569843292,-0.5137176513671875,-0.6475663781166077,0.0
190_23rd_St-2026-04-09_01-22-17,7.03328759765625,0.7554727689795195,-0.0461269604027271,-0.0171124628424644,-0.2436339408159256,-0.479563444852829,-0.6471433639526367,0.0
