session_id,timestamp_sec,accel_x,accel_y,accel_z,gyro_x,gyro_y,gyro_z,speed_kmh
112_Corbin_Ave-2026-04-09_01-07-42,0.0,0.0185899149838834,-0.1300070206165313,0.8166928152263164,-0.0447946935892105,-0.0834584161639213,-0.0482747331261634,0.0
112_Corbin_Ave-2026-04-09_01-07-42,0.010048828125000006,-0.0247643658351153,-0.1013660325437784,0.8142962754786014,-0.1601341664791107,-0.1651553213596344,-0.0827901735901832,0.0
112_Corbin_Ave-2026-04-09_01-07-42,0.020097900390625006,-0.0634658524122089,-0.0600327361583709,0.6788812583386897,-0.243734523653984,-0.225368320941925,-0.1164434701204299,0.0
112_Corbin_Ave-2026-04-09_01-07-42,0.030146972656250007,-0.0579934123504906,0.0584568651437759,0.4069716121286154,-0.2792128026485443,-0.2727575004100799,-0.1431147009134292,0.0
112_Corbin_Ave-2026-04-09_01-07-42,0.04019604492187501,-0.05864267003946,0.1587526381075382,0.1780418604671955,-0.2659111022949219,-0.311530739068985,-0.1693436354398727,0.0
112_Corbin_Ave-2026-04-09_01-07-42,0.05024487304687501,-0.0468707645073533,0.2389326747596263,-0.038993455260992,-0.2134322673082351,-0.3088336586952209,-0.1865474730730056,0.0
112_Corbin_Ave-2026-04-09_01-07-42,0.0602939453125,-0.0627982553489506,0.2943079405009746,-0.2427829204469919,-0.1253069341182708,-0.2624081075191498,-0.2000699341297149,0.0
112_Corbin_Ave-2026-04-09_01-07-42,0.07034301757812501,-0.0791957748550921,0.3122819886088371,-0.3760404672920703,-0.0180224571377038,-0.1917770951986313,-0.2107943445444107,0.0
112_Corbin_Ave-2026-04-09_01-07-42,0.080391845703125,-0.0838172971758991,0.3163251265197992,-0.3796837922304868,0.0907429009675979,-0.1065791249275207,-0.2154109328985214,0.0
112_Corbin_Ave-2026-04-09_01-07-42,0.09044116210937501,0.0086463939227163,0.2347901681274175,-0.034433599999547,0.172880008816719,-0.0416951589286327,-0.2096876800060272,0.0
112_Corbin_Ave-2026-04-09_01-07-42,0.100489990234375,0.1026969888865947,0.1667898140907287,0.266800340372324,0.2157579660415649,-0.0326734334230423,-0.1996081471443176,0.0
112_Corbin_Ave-2026-04-09_01-07-42,0.110538818359375,0.0919219854373484,0.1831990970999002,0.250983178037405,0.2190985977649688,-0.0476816929876804,-0.1806562542915344,0.0
112_Corbin_Ave-2026-04-09_01-07-42,0.12058886718750002,0.0623128099195659,0.0425567007005214,0.3886719853281974,0.1884520053863525,-0.0474611856043338,-0.1582414954900741,0.0
112_Corbin_Ave-2026-04-09_01-07-42,0.13063793945312502,0.0921208690103143,-0.0430377622157335,0.4390501734346151,0.1510489732027053,-0.047378797084093,-0.1429122388362884,0.0
112_Corbin_Ave-2026-04-09_01-07-42,0.14068701171875003,0.1220508009150624,-0.0874503199160098,0.4239975657314062,0.1123998463153839,-0.0451345518231391,-0.1382881850004196,0.0
112_Corbin_Ave-2026-04-09_01-07-42,0.15073583984375,0.1685372422799468,-0.0792430480629205,0.4079080161958933,0.0810738056898117,-0.0350769013166427,-0.1409348249435424,0.0
112_Corbin_Ave-2026-04-09_01-07-42,0.16078515625,0.2298970623236149,-0.0118757312327623,0.4486836786985397,0.0606233961880207,-0.016272323206067,-0.1523781716823578,0.0
112_Corbin_Ave-2026-04-09_01-07-42,0.17083374023437503,0.2611043206878006,0.0678238284260034,0.4217588468939066,0.0413438640534877,0.0250232238322496,-0.1664773374795913,0.0
112_Corbin_Ave-2026-04-09_01-07-42,0.18088281250000005,0.2404996318154036,0.0527542695879936,0.4509697438091039,0.0253680925816297,0.0649735704064369,-0.1915206462144851,0.0
112_Corbin_Ave-2026-04-09_01-07-42,0.19093212890625,0.2043493640910834,0.0143196172535419,0.5036012638002634,0.0098087275400757,0.09426049888134,-0.2156091779470443,0.0
112_Corbin_Ave-2026-04-09_01-07-42,0.20098095703125002,0.1476779210593551,-0.0496323381751775,0.5150006096929312,-0.0069577358663082,0.1260493248701095,-0.2331519573926925,0.0
112_Corbin_Ave-2026-04-09_01-07-42,0.21103002929687503,0.1269952350473031,-0.1332242290973663,0.5506383247852326,-0.0505404770374298,0.1636931300163269,-0.2315017282962799,0.0
112_Corbin_Ave-2026-04-09_01-07-42,0.221078857421875,0.0826261511625722,-0.1785205838948488,0.6118862819522619,-0.130590558052063,0.1835786998271942,-0.197084903717041,0.0
112_Corbin_Ave-2026-04-09_01-07-42,0.2311279296875,0.0911741262121126,-0.2051467250138521,0.5890425819814205,-0.2323019355535507,0.189145490527153,-0.1317973583936691,0.0
112_Corbin_Ave-2026-04-09_01-07-42,0.241177978515625,0.0773356435390189,-0.1741547899007797,0.5242202734589576,-0.3342101871967315,0.1789823323488235,-0.0451583340764045,0.0
112_Corbin_Ave-2026-04-09_01-07-42,0.25122705078125,0.0787293263871222,-0.0696668259441852,0.4217693682879209,-0.4168114066123962,0.1514085829257965,0.0500719472765922,0.0
112_Corbin_Ave-2026-04-09_01-07-42,0.26127612304687503,0.0727122215220704,0.0518441690057516,0.2491314126908779,-0.4685766100883484,0.1360594481229782,0.1417166441679,0.0
112_Corbin_Ave-2026-04-09_01-07-42,0.271324951171875,0.1313927028212696,0.1728080514669418,0.0147369658827781,-0.4861645400524139,0.1465615928173065,0.2151031047105789,0.0
112_Corbin_Ave-2026-04-09_01-07-42,0.2813740234375,0.1010329281318932,0.2082359232008457,-0.3029366526365279,-0.4727610945701599,0.1886336654424667,0.2577429711818695,0.0
112_Corbin_Ave-2026-04-09_01-07-42,0.29142285156250003,0.0047040860377252,0.2398363456010818,-0.6263982069075107,-0.4233312010765075,0.2534041106700897,0.2713029086589813,0.0
112_Corbin_Ave-2026-04-09_01-07-42,0.30147192382812504,-0.0668609747432172,0.2891395979523659,-0.8242962759673595,-0.3520019054412842,0.3149665296077728,0.2661432921886444,0.0
112_Corbin_Ave-2026-04-09_01-07-42,0.31152099609375,-0.0801319231940433,0.2930862897515296,-0.9082862262964247,-0.2652511298656463,0.3332237601280212,0.2468756437301635,0.0
112_Corbin_Ave-2026-04-09_01-07-42,0.321570068359375,-0.0869868671227246,0.2768482716560363,-0.8920411939382552,-0.1644608825445175,0.3080100119113922,0.2145035862922668,0.0
112_Corbin_Ave-2026-04-09_01-07-42,0.33161889648437504,-0.0643994800005108,0.2532482003599405,-1.1587047561883923,-0.0575163066387176,0.2739642560482025,0.1813345104455948,0.0
112_Corbin_Ave-2026-04-09_01-07-42,0.34166796875,-0.0218280201222747,0.234628840085864,-1.238000411221385,0.0463749393820762,0.249296173453331,0.1556448638439178,0.0
112_Corbin_Ave-2026-04-09_01-07-42,0.351717041015625,0.0477598953668028,0.1921609867125749,-1.220810206967592,0.1445635259151458,0.2300973236560821,0.1385158449411392,0.0
112_Corbin_Ave-2026-04-09_01-07-42,0.36176586914062503,0.0420229956826195,0.2046685861080884,-1.2326181336611508,0.2249563634395599,0.192334234714508,0.13381989300251,0.0
112_Corbin_Ave-2026-04-09_01-07-42,0.37181591796875,0.1013674573158845,0.0588537555068731,-0.972981109046936,0.2882634401321411,0.1270719766616821,0.1390334367752075,0.0
112_Corbin_Ave-2026-04-09_01-07-42,0.38186523437500003,0.1137103311363607,0.0135772744536399,-0.991990929943323,0.3353566527366638,0.0664895921945571,0.1510533392429351,0.0
112_Corbin_Ave-2026-04-09_01-07-42,0.391913818359375,0.1358485131863504,-0.0184264680504798,-0.9637386489272116,0.3683540821075439,0.0316748209297657,0.1680633276700973,0.0
112_Corbin_Ave-2026-04-09_01-07-42,0.401962890625,0.1555523076962679,-0.0579115062206983,-0.749799545648694,0.3916695117950439,-0.0275773163884878,0.1894487887620926,0.0
112_Corbin_Ave-2026-04-09_01-07-42,0.412011962890625,0.1739552487406879,-0.030873277169466,-0.7781038491129875,0.4100073575973511,-0.0991349443793296,0.2089801579713821,0.0
112_Corbin_Ave-2026-04-09_01-07-42,0.42206103515625004,0.0903168152630329,-0.0187894561439752,-0.5799053358018398,0.4181787371635437,-0.1377667635679245,0.2182972282171249,0.0
112_Corbin_Ave-2026-04-09_01-07-42,0.43210961914062507,0.0340472310304641,0.0434212085753679,-0.4735702826738357,0.422599047422409,-0.1433680057525634,0.2120534479618072,0.0
112_Corbin_Ave-2026-04-09_01-07-42,0.442158935546875,-0.0337877763766795,0.0375099387049674,-0.3583306230783462,0.4179717898368835,-0.1380864232778549,0.1950845867395401,0.0
112_Corbin_Ave-2026-04-09_01-07-42,0.45220800781250003,-0.0837130696164444,0.0411509255558252,-0.2182441069960594,0.4102503955364227,-0.1454167068004608,0.1619786471128463,0.0
112_Corbin_Ave-2026-04-09_01-07-42,0.4622568359375,-0.0628550635701045,0.0677016633510589,-0.2477273911118507,0.3933305442333221,-0.1743399649858474,0.121301531791687,0.0
112_Corbin_Ave-2026-04-09_01-07-42,0.47230615234375006,-0.0397952366305515,0.059575640040636,0.1291629710078239,0.3673613369464874,-0.2115179300308227,0.0758576020598411,0.0
112_Corbin_Ave-2026-04-09_01-07-42,0.482354736328125,-0.0273745483335107,0.0427636214494705,0.1858966656208038,0.3385195732116699,-0.2434084862470626,0.0347796753048896,0.0
112_Corbin_Ave-2026-04-09_01-07-42,0.49240380859375,0.0083161390550434,0.036712650847435,0.2385328617870807,0.317957192659378,-0.272402673959732,-0.0005271678091958,0.0
112_Corbin_Ave-2026-04-09_01-07-42,0.5024541015625,0.0262048469670116,0.0574696076720952,0.2144786169826984,0.3006868660449981,-0.2814595699310303,-0.0189647655934095,0.0
112_Corbin_Ave-2026-04-09_01-07-42,0.5125029296875,0.0556491873119026,0.112193131506443,0.2443167058855295,0.2855980396270752,-0.26345294713974,-0.0241277981549501,0.0
112_Corbin_Ave-2026-04-09_01-07-42,0.522552001953125,0.0682126085478812,0.1286158585190772,0.2497048286646604,0.2658410966396332,-0.2301887571811676,-0.0158128775656223,0.0
112_Corbin_Ave-2026-04-09_01-07-42,0.53260107421875,0.0830857680309563,0.0977180314302444,0.295209857776761,0.2438269108533859,-0.2084838151931762,-0.003019660944119,0.0
112_Corbin_Ave-2026-04-09_01-07-42,0.54264990234375,0.0895190890140831,0.0917249284952878,0.389383348467946,0.209000751376152,-0.1984048038721084,0.0056875441223382,0.0
112_Corbin_Ave-2026-04-09_01-07-42,0.5526987304687501,0.0898684869736433,0.1004313820421695,0.4936860189855098,0.1631820946931839,-0.2059207707643509,0.009737174026668,0.0
112_Corbin_Ave-2026-04-09_01-07-42,0.562748046875,0.0510261306211352,0.0853027864933013,0.6012076515495777,0.1155698373913765,-0.218833640217781,0.0054177925921976,0.0
112_Corbin_Ave-2026-04-09_01-07-42,0.572796875,0.0116369540408253,0.0853302590221166,0.6120715753912925,0.0545010715723037,-0.220429390668869,-0.0063125202432274,0.0
112_Corbin_Ave-2026-04-09_01-07-42,0.582845947265625,-0.0305173764038831,0.0929120924532413,0.6135293729841709,-0.009605212137103,-0.220857635140419,-0.0233445018529891,0.0
112_Corbin_Ave-2026-04-09_01-07-42,0.59289501953125,-0.0690071929916739,0.0656979223132133,0.6133990246027707,-0.0744062736630439,-0.2282068133354187,-0.0446228869259357,0.0
112_Corbin_Ave-2026-04-09_01-07-42,0.60294384765625,-0.0874479087632149,0.0276706817358732,0.6249076760888099,-0.1352640241384506,-0.2386602461338043,-0.0628964304924011,0.0
112_Corbin_Ave-2026-04-09_01-07-42,0.612992919921875,-0.1003467724986374,0.0510047955721616,0.5770943700343371,-0.186929851770401,-0.2207864820957183,-0.0822746828198432,0.0
112_Corbin_Ave-2026-04-09_01-07-42,0.6230419921875,-0.0956233972385525,0.0438438179016113,0.3965805664956569,-0.2230436503887176,-0.1814081817865371,-0.1059360653162002,0.0
112_Corbin_Ave-2026-04-09_01-07-42,0.633092041015625,-0.0818327722951769,0.0511935961425304,0.2083592573195695,-0.2420443892478943,-0.1310143321752548,-0.1248234361410141,0.0
112_Corbin_Ave-2026-04-09_01-07-42,0.64314111328125,-0.0831478004164993,0.1215390520006418,-0.0331961671590805,-0.2433229684829712,-0.0703264847397804,-0.1223903745412826,0.0
112_Corbin_Ave-2026-04-09_01-07-42,0.653189697265625,-0.0077886080496013,0.18594108928442,-0.2515022334754467,-0.2325957268476486,-0.0730618610978126,-0.1045917645096778,0.0
112_Corbin_Ave-2026-04-09_01-07-42,0.663239013671875,0.1709152234576642,0.2050561241209507,-0.1291653090953826,-0.2182037383317947,-0.1788388937711715,-0.0863392576575279,0.0
112_Corbin_Ave-2026-04-09_01-07-42,0.6732878417968751,0.2839242744568735,0.1214250702321529,0.1353022044152021,-0.2015452086925506,-0.2762336432933807,-0.0748431757092475,0.0
112_Corbin_Ave-2026-04-09_01-07-42,0.6833369140625,0.261201497451961,-0.0380950451165437,0.0228092131793498,-0.1724166274070739,-0.2726889848709106,-0.0732865631580352,0.0
112_Corbin_Ave-2026-04-09_01-07-42,0.693385986328125,0.1684744792420417,-0.1625876862257718,-0.2371989828348159,-0.1403645128011703,-0.1911521106958389,-0.0784029513597488,0.0
112_Corbin_Ave-2026-04-09_01-07-42,0.7034348144531251,0.0660883829355239,-0.2012520556628703,-0.3494856378436088,-0.1005720943212509,-0.0940572619438171,-0.0765773579478263,0.0
112_Corbin_Ave-2026-04-09_01-07-42,0.7134838867187501,0.0107367172654718,-0.133195003002882,-0.3348427799850702,-0.0704108402132988,-0.0146771799772977,-0.0618872307240963,0.0
112_Corbin_Ave-2026-04-09_01-07-42,0.723532958984375,0.0355691799007356,-0.0395896675884723,-0.290405672365427,-0.0487343072891235,0.0363665632903575,-0.0424038097262382,0.0
112_Corbin_Ave-2026-04-09_01-07-42,0.73358203125,0.0692580990128219,0.0294172331422567,-0.2493646369248628,-0.038503773510456,0.0512979514896869,-0.0128460340201854,0.0
112_Corbin_Ave-2026-04-09_01-07-42,0.743631103515625,0.1313786012306809,0.0476636684507131,-0.1855845309317111,-0.0351202264428138,0.0154137210920453,0.0095167951658368,0.0
112_Corbin_Ave-2026-04-09_01-07-42,0.753679931640625,0.1890557141736149,0.0391430928647518,-0.0376724357903003,-0.0411554984748363,-0.0371206551790237,0.0225475933402776,0.0
112_Corbin_Ave-2026-04-09_01-07-42,0.763728759765625,0.2338963610928505,-0.0045762218743562,0.0466121135711669,-0.0479169972240924,-0.0642244443297386,0.0206538196653127,0.0
112_Corbin_Ave-2026-04-09_01-07-42,0.77377880859375,0.1678508674509823,-0.0640793812006711,0.0225081844061613,-0.057389996945858,-0.0539799928665161,0.0092308623716235,0.0
112_Corbin_Ave-2026-04-09_01-07-42,0.783828125,0.0544094163838773,-0.0863975959926843,0.0065624272555112,-0.0663952082395553,-0.0281625092029571,-0.0026433744933456,0.0
112_Corbin_Ave-2026-04-09_01-07-42,0.7938769531250001,-0.0213102798584848,-0.0773012663453817,0.0634931057453155,-0.0779746621847152,-0.0160516444593668,-0.0103519968688488,0.0
112_Corbin_Ave-2026-04-09_01-07-42,0.803926025390625,-0.0321939313139766,-0.02193243034482,0.1293985333293676,-0.0901820659637451,-0.0050163026899099,-0.0170165561139583,0.0
112_Corbin_Ave-2026-04-09_01-07-42,0.813974853515625,0.0014227262794971,0.0294879602909088,0.1314969669133424,-0.1022555157542228,0.0066880723461508,-0.0193192791193723,0.0
112_Corbin_Ave-2026-04-09_01-07-42,0.82402392578125,0.0229654997196048,0.0853437030255794,0.1199731178581714,-0.1098982542753219,0.0087983608245849,-0.0176630578935146,0.0
112_Corbin_Ave-2026-04-09_01-07-42,0.83407275390625,0.0505433886054903,0.1187368540614843,0.1066173772007226,-0.1139188632369041,-0.0033441793639212,-0.0170263983309268,0.0
112_Corbin_Ave-2026-04-09_01-07-42,0.8441220703125,0.0686968849334865,0.1351987440407276,0.113513566455245,-0.1148408502340316,-0.0145219983533024,-0.0138788083568215,0.0
112_Corbin_Ave-2026-04-09_01-07-42,0.854171142578125,0.03485679384768,0.1169359421193599,0.0173141228944063,-0.1040491014719009,-0.0252046324312686,-0.0141373667865991,0.0
112_Corbin_Ave-2026-04-09_01-07-42,0.8642194824218751,0.0077087477464228,0.1098386773347854,-0.0530354246169328,-0.0860053896903991,-0.0249918457120656,-0.013864392414689,0.0
112_Corbin_Ave-2026-04-09_01-07-42,0.8742685546875,0.0080078037582337,0.104748076197505,-0.0477507622122764,-0.0676516219973564,-0.0145490765571594,-0.014092425815761,0.0
112_Corbin_Ave-2026-04-09_01-07-42,0.8843173828125,-0.0249327812045812,0.1078828670918941,-0.0826589939862489,-0.0509040653705596,0.0052259596996009,-0.012634078040719,0.0
112_Corbin_Ave-2026-04-09_01-07-42,0.89436669921875,-0.0320430516012012,0.0846516291081905,-0.0813502494752407,-0.0390516407787799,0.025733221322298,-0.0140454545617103,0.0
112_Corbin_Ave-2026-04-09_01-07-42,0.904415771484375,-0.0293857420254498,0.0919230814158916,-0.0383282693505287,-0.0304179415106773,0.0312646068632602,-0.0151924779638648,0.0
112_Corbin_Ave-2026-04-09_01-07-42,0.91446533203125,-0.0134221569571644,0.0645814855039119,-0.0293704713910818,-0.0316156893968582,0.0262959226965904,-0.0204625260084867,0.0
112_Corbin_Ave-2026-04-09_01-07-42,0.9245144042968749,0.0526412376675754,0.0356090735197067,-0.0248982944130897,-0.0429647527635097,0.017501100897789,-0.0273036528378725,0.0
112_Corbin_Ave-2026-04-09_01-07-42,0.9345634765624999,0.0646216713838279,0.0223018481791019,0.0100011695325374,-0.0632189437747001,0.0005050918553024,-0.0372712649405002,0.0
112_Corbin_Ave-2026-04-09_01-07-42,0.944612548828125,0.0632269290897995,-0.0011211129844188,0.0071358432292938,-0.0869935154914856,-0.0126685006543993,-0.0485494881868362,0.0
112_Corbin_Ave-2026-04-09_01-07-42,0.95466162109375,0.036700887344405,-0.0138929162740707,0.0165682729631662,-0.1168117076158523,-0.0143741071224212,-0.0520507246255874,0.0
112_Corbin_Ave-2026-04-09_01-07-42,0.9647104492187499,-0.0272085441168397,-0.0230260708004236,-0.0057785834014415,-0.1477243453264236,-0.0015451274812221,-0.0585776008665561,0.0
112_Corbin_Ave-2026-04-09_01-07-42,0.974759521484375,-0.0881014042358845,-0.0358189168781042,-0.0643009149968624,-0.1797377169132232,0.0347343496978282,-0.063614435493946,0.0
112_Corbin_Ave-2026-04-09_01-07-42,0.9848083496093749,-0.1208545038025826,-0.0118599491417407,-0.0049731122374534,-0.2326901406049728,0.0954869166016578,-0.0668911859393119,0.0
112_Corbin_Ave-2026-04-09_01-07-42,0.994857666015625,-0.1971252580564469,-0.0401426252961158,0.0600841740846633,-0.2730545997619629,0.1294773668050766,-0.0840414091944694,0.0
112_Corbin_Ave-2026-04-09_01-07-42,1.004906494140625,-0.2401713497091084,0.0672311232298612,0.3970394161790609,-0.3096603751182556,0.1298539042472839,-0.1056779846549034,0.0
112_Corbin_Ave-2026-04-09_01-07-42,1.0149553222656251,-0.2874335246868431,0.2330009466230869,0.4195364946693182,-0.3548636436462402,0.0937633514404296,-0.1121497601270675,0.0
112_Corbin_Ave-2026-04-09_01-07-42,1.025004638671875,-0.4757873011361807,0.2022819832324981,-0.0324608386218547,-0.4138017892837524,0.2591462135314941,-0.1181655749678611,0.0
112_Corbin_Ave-2026-04-09_01-07-42,1.035053466796875,-0.5070836260233074,0.1185287642687559,0.1778127278864383,-0.4716898202896118,0.4102568030357361,-0.1319451481103897,0.0
112_Corbin_Ave-2026-04-09_01-07-42,1.0451025390625,-0.4524552331265062,0.1340168407797813,0.2214969713121652,-0.5001749992370605,0.4508108794689178,-0.1553498059511184,0.0
112_Corbin_Ave-2026-04-09_01-07-42,1.055151611328125,-0.2684758723691106,0.1754822391122579,-0.0039367549270391,-0.4923374652862549,0.4265086054801941,-0.176539272069931,0.0
112_Corbin_Ave-2026-04-09_01-07-42,1.06520166015625,-0.0791457251682877,0.2240600997984409,-0.1668073497474193,-0.435312807559967,0.3808628022670746,-0.1902574896812439,0.0
112_Corbin_Ave-2026-04-09_01-07-42,1.07525048828125,-0.0260123566022142,0.0586579406738281,-0.5144178413689137,-0.3389215171337127,0.3880110681056976,-0.2000043243169784,0.0
112_Corbin_Ave-2026-04-09_01-07-42,1.085299560546875,-0.0099390275491401,-0.1065513262271881,-0.7867156101137399,-0.2235962748527526,0.4530465304851532,-0.2113523185253143,0.0
112_Corbin_Ave-2026-04-09_01-07-42,1.0953486328125,0.0858404370339587,0.0731429776221513,-0.9668804540842773,-0.1137878596782684,0.539895236492157,-0.1874957084655761,0.0
112_Corbin_Ave-2026-04-09_01-07-42,1.1053974609375,0.2023714881468564,0.2811357397168874,-0.992352748993039,-0.0141198551282286,0.5795100331306458,-0.1229012608528137,0.0
112_Corbin_Ave-2026-04-09_01-07-42,1.11544677734375,0.3571430207289755,0.3097258743852377,-0.6594698709040879,0.0658069252967834,0.5094138979911804,-0.0329494923353195,0.0
112_Corbin_Ave-2026-04-09_01-07-42,1.125495361328125,0.5381151990270242,0.294601955011487,-0.0792763658106327,0.154001235961914,0.2407832443714141,0.0663699060678482,0.0
112_Corbin_Ave-2026-04-09_01-07-42,1.1355444335937501,0.5213908952519297,0.2930032876431941,-0.3123451169729233,0.2164467871189117,0.0285569038242101,0.1701108962297439,0.0
112_Corbin_Ave-2026-04-09_01-07-42,1.145593505859375,0.4604074342399835,0.1963911716282367,-0.7875818715542554,0.2472387850284576,0.060531347990036,0.2470895648002624,0.0
112_Corbin_Ave-2026-04-09_01-07-42,1.155642578125,0.3147951404735445,0.0293722249567508,-0.7113520338326692,0.2773952186107635,0.172071948647499,0.2676234841346741,0.0
112_Corbin_Ave-2026-04-09_01-07-42,1.165691650390625,0.1973271738367155,-0.0652642070710659,-0.4595931952476501,0.3108809888362884,0.2122771590948104,0.2432699352502823,0.0
112_Corbin_Ave-2026-04-09_01-07-42,1.175740478515625,0.1930651324780657,-0.0320154329419136,-0.3661351593494415,0.3325561285018921,0.200162261724472,0.1930380314588546,0.0
112_Corbin_Ave-2026-04-09_01-07-42,1.18578955078125,0.2364186095794662,0.0436462495028972,-0.2336690551429986,0.3376896381378174,0.1682293713092804,0.1296132504940033,0.0
112_Corbin_Ave-2026-04-09_01-07-42,1.19583837890625,0.2981321749642491,0.0661994420945644,0.1315893213719129,0.3215553164482116,0.0536943599581718,0.0614559575915336,0.0
112_Corbin_Ave-2026-04-09_01-07-42,1.2058876953125,0.3480672589456662,0.0637707536429166,0.452683561989665,0.2914608120918274,-0.1323048174381256,-0.006802724674344,0.0
112_Corbin_Ave-2026-04-09_01-07-42,1.2159365234375,0.3636600744727998,0.0074888944506645,0.5514344435989856,0.2384673058986663,-0.300659030675888,-0.0763946995139122,0.0
112_Corbin_Ave-2026-04-09_01-07-42,1.2259865722656251,0.3007281097415834,-0.0667979925096035,0.5835352167367935,0.1633488535881042,-0.403361976146698,-0.1289886534214019,0.0
112_Corbin_Ave-2026-04-09_01-07-42,1.236035400390625,0.1856843745769932,-0.1711322272092104,0.6687924105226993,0.0812137275934219,-0.4595042467117309,-0.1621326655149459,0.0
112_Corbin_Ave-2026-04-09_01-07-42,1.24608447265625,0.0812566894402727,-0.2262918043732643,0.5961158813685178,0.0241067670285701,-0.4779234528541565,-0.181838721036911,0.0
112_Corbin_Ave-2026-04-09_01-07-42,1.2561335449218751,0.0804578672127798,-0.1901549075871706,0.3153834617555141,-0.0033587641082704,-0.4011258780956268,-0.1831845492124557,0.0
112_Corbin_Ave-2026-04-09_01-07-42,1.2661826171875,0.1376502288460731,-0.0993628760278224,0.241672913378477,-0.0085284924134612,-0.2745567560195923,-0.1652851700782776,0.0
112_Corbin_Ave-2026-04-09_01-07-42,1.276231689453125,0.1680392296299338,-0.0492716881692409,0.2927098576545715,0.0107365055009722,-0.1733969300985336,-0.132550373673439,0.0
112_Corbin_Ave-2026-04-09_01-07-42,1.2862802734375,0.1695721748182549,-0.0467483071714639,0.2900748329758644,0.0461863726377487,-0.0938368588685989,-0.0899419337511062,0.0
112_Corbin_Ave-2026-04-09_01-07-42,1.2963295898437501,0.2515906424112618,0.0318938523888587,0.3052992901146412,0.0816226080060005,-0.0121462363749742,-0.0417831279337406,0.0
112_Corbin_Ave-2026-04-09_01-07-42,1.306378662109375,0.3081520491972565,0.0953951414406299,0.2947317188709974,0.1113147214055061,0.0413750447332859,0.0047417618334293,0.0
112_Corbin_Ave-2026-04-09_01-07-42,1.316427490234375,0.2835824752818793,0.1113993507802486,0.3966805197387933,0.121785283088684,0.0558295510709285,0.0458778329193592,0.0
112_Corbin_Ave-2026-04-09_01-07-42,1.326476806640625,0.2438632630296051,0.0920738880634307,0.4923275901138782,0.1116420924663543,0.0398330092430114,0.0741001516580581,0.0
112_Corbin_Ave-2026-04-09_01-07-42,1.336525390625,0.1938624203355982,0.0262117150992155,0.5786638113081455,0.069864347577095,0.0170571021735668,0.0880025848746299,0.0
112_Corbin_Ave-2026-04-09_01-07-42,1.346574462890625,0.1037199387261643,-0.0360381125867366,0.5800532198399305,0.0228768624365329,0.002351926639676,0.0850017368793487,0.0
112_Corbin_Ave-2026-04-09_01-07-42,1.3566235351562501,0.0677790029035881,-0.0653109688222408,0.4859475336879491,-0.0240788869559764,-0.0086837606504559,0.0722839683294296,0.0
112_Corbin_Ave-2026-04-09_01-07-42,1.3666726074218751,0.0465753252247348,-0.0472603483468294,0.4061924444496631,-0.0644441470503807,-0.0297174081206321,0.0575505569577217,0.0
112_Corbin_Ave-2026-04-09_01-07-42,1.3767216796875,0.0388977398015558,0.0121510410428047,0.3432727546781301,-0.0983191356062889,-0.0482114255428314,0.0457132011651992,0.0
112_Corbin_Ave-2026-04-09_01-07-42,1.386771484375,0.0499422809071838,0.0746592274039983,0.2110042188704013,-0.1210566759109497,-0.0380429439246654,0.0390915162861347,0.0
112_Corbin_Ave-2026-04-09_01-07-42,1.396820556640625,0.0255244269547984,0.1229126784414052,0.0426648372501134,-0.1243380829691886,-0.0152886528521776,0.0320613719522953,0.0
112_Corbin_Ave-2026-04-09_01-07-42,1.406869384765625,0.0030950799385085,0.1135357782870531,-0.0969645827144384,-0.1139570772647857,0.0013252107892185,0.0263696629554033,0.0
112_Corbin_Ave-2026-04-09_01-07-42,1.41691845703125,-0.0149137472217902,0.1147825634777545,-0.1512432853907346,-0.1007279008626937,0.0060838144272565,0.0203676167875528,0.0
112_Corbin_Ave-2026-04-09_01-07-42,1.4269677734375,-0.0002650806769728,0.1208306114703416,-0.1594359441965818,-0.0810553953051567,0.0003638768102973,0.0152756534516811,0.0
112_Corbin_Ave-2026-04-09_01-07-42,1.4370166015625,0.0024474662173539,0.0990688615173101,-0.1672363888144493,-0.0735127925872802,-0.0034260675311088,0.0143470093607902,0.0
112_Corbin_Ave-2026-04-09_01-07-42,1.4470654296875,0.0067897697379812,0.0880260739773511,-0.2412894670188426,-0.0618923529982566,-0.0137285068631172,0.0102657154202461,0.0
112_Corbin_Ave-2026-04-09_01-07-42,1.457114501953125,0.0007643719686195,0.0783931532353162,-0.2268757417410612,-0.0521230213344097,-0.0305768586695194,0.0054193227551877,0.0
112_Corbin_Ave-2026-04-09_01-07-42,1.46716357421875,-0.019888028503023,0.0527986932516097,-0.2436731472849845,-0.0435468442738056,-0.0360946618020534,-0.0014612202066928,0.0
112_Corbin_Ave-2026-04-09_01-07-42,1.47721240234375,-0.0109676399445161,0.0598620557665824,-0.2699205182194709,-0.0343207456171512,-0.0361430123448371,-0.006466937251389,0.0
112_Corbin_Ave-2026-04-09_01-07-42,1.4872617187500001,-0.0071527943640947,0.0461216997057199,-0.2611035900354385,-0.0254289805889129,-0.0314246900379657,-0.0103623429313302,0.0
112_Corbin_Ave-2026-04-09_01-07-42,1.497310302734375,-0.0075724445482715,0.0627712212115526,-0.2803922278732061,-0.01050431933254,-0.0294107776135206,-0.0113159483298659,0.0
112_Corbin_Ave-2026-04-09_01-07-42,1.507359375,0.0169496004309505,0.0978711761653423,-0.2837508906513452,0.0043057855218648,-0.0440086275339126,-0.008040259592235,0.0
112_Corbin_Ave-2026-04-09_01-07-42,1.5174086914062501,0.0412958504518494,0.128873632672429,-0.2533469845592975,0.0198168642818927,-0.0720831304788589,-0.010527997277677,0.0
112_Corbin_Ave-2026-04-09_01-07-42,1.52745751953125,0.0535684720477089,0.1171188974708318,-0.1974959179997444,0.0320466309785842,-0.0828391015529632,-0.0095990868285298,0.0
112_Corbin_Ave-2026-04-09_01-07-42,1.5375068359375,0.0407960477035492,0.1187590658932924,-0.1906511666715145,0.0448589846491813,-0.0714518055319786,-0.0112360948696732,0.0
112_Corbin_Ave-2026-04-09_01-07-42,1.547555419921875,-0.0128656190529465,0.1150011746644973,-0.2046528040170669,0.0578687936067581,-0.0596135295927524,-0.0196072086691856,0.0
112_Corbin_Ave-2026-04-09_01-07-42,1.55760546875,-0.0407230920651927,0.1180453646659851,-0.109395609742403,0.0645312219858169,-0.0534293986856937,-0.0276297163218259,0.0
112_Corbin_Ave-2026-04-09_01-07-42,1.567654541015625,-0.0492939365336671,0.1214735855489969,-0.0305962137937545,0.0629234760999679,-0.0386525839567184,-0.0372722223401069,0.0
112_Corbin_Ave-2026-04-09_01-07-42,1.57770361328125,-0.054271030826494,0.1247492462188005,0.0134814128637313,0.0598578006029129,-0.0189651288092136,-0.0454903505742549,0.0
112_Corbin_Ave-2026-04-09_01-07-42,1.587752685546875,-0.0247338245663791,0.107821492293477,0.018940847313404,0.0572465658187866,-0.0056194951757788,-0.0562971904873847,0.0
112_Corbin_Ave-2026-04-09_01-07-42,1.59780126953125,0.0038768414333462,0.104542909014225,0.0627297201573848,0.0517575964331626,-0.0102070132270455,-0.0596407987177372,0.0
112_Corbin_Ave-2026-04-09_01-07-42,1.6078505859375,0.0543044947046786,0.0729945090621709,0.1368237148940563,0.0404982827603817,-0.0233590342104434,-0.0555997192859649,0.0
112_Corbin_Ave-2026-04-09_01-07-42,1.6178994140625,0.1091716647934168,0.0735667559921741,0.1821545564830303,0.0302097927778959,-0.0392400957643985,-0.0544089265167713,0.0
112_Corbin_Ave-2026-04-09_01-07-42,1.627948486328125,0.1172351077290251,0.056492871594429,0.2132020211756229,0.0173552483320236,-0.0388752408325672,-0.0538003928959369,0.0
112_Corbin_Ave-2026-04-09_01-07-42,1.6379978027343751,0.097888054234907,0.0297410582691431,0.1273626435875892,0.00688495952636,-0.0285382252186536,-0.0523209981620311,0.0
112_Corbin_Ave-2026-04-09_01-07-42,1.64804638671875,0.0999154684092849,0.0422322910517454,0.1359568689316511,0.0015479845460504,-0.0216912385076284,-0.0502011217176914,0.0
112_Corbin_Ave-2026-04-09_01-07-42,1.658095458984375,0.0982932375023141,0.0425982017546892,0.1357078626066446,9.91832930594e-05,-0.0356358475983142,-0.0512851104140281,0.0
112_Corbin_Ave-2026-04-09_01-07-42,1.66814453125,0.1105651649784296,0.0442506451368331,0.1713712966620922,-0.0078282486647367,-0.0470536164939403,-0.0519261322915554,0.0
112_Corbin_Ave-2026-04-09_01-07-42,1.678193603515625,0.1069875987526029,0.02249181779325,0.153053549683094,-0.0238562449812889,-0.0508853867650032,-0.0528927743434906,0.0
112_Corbin_Ave-2026-04-09_01-07-42,1.688242431640625,0.0834879190910607,-0.0423334133386611,0.1201987433075904,-0.0345195420086383,-0.0523698329925537,-0.0592910163104534,0.0
112_Corbin_Ave-2026-04-09_01-07-42,1.69829150390625,0.0708410208227112,-0.0542775336325168,0.0994464626580476,-0.0469368509948253,-0.0525455810129642,-0.0677680671215057,0.0
112_Corbin_Ave-2026-04-09_01-07-42,1.70834033203125,0.0683840195920318,-0.0142868840277194,0.0800742381900549,-0.0614694543182849,-0.042913194745779,-0.0674407631158828,0.0
112_Corbin_Ave-2026-04-09_01-07-42,1.718389404296875,0.085911237247847,-0.0108516488820314,0.0449216762661933,-0.0734731927514076,-0.0345051065087318,-0.0650452449917793,0.0
112_Corbin_Ave-2026-04-09_01-07-42,1.728438720703125,0.1010149906164035,-0.0281055660218,-0.0056184244036674,-0.0839205086231231,-0.0307021103799343,-0.0508665740489959,0.0
112_Corbin_Ave-2026-04-09_01-07-42,1.738487548828125,0.100247878701426,-0.0149041391432285,-0.0379155968964099,-0.0793250948190689,-0.0333721749484539,-0.0360514745116233,0.0
112_Corbin_Ave-2026-04-09_01-07-42,1.74853759765625,0.1074324564432725,0.0294698401123285,-0.1312275023221969,-0.0680841580033302,-0.0216510687023401,-0.0200964752584695,0.0
112_Corbin_Ave-2026-04-09_01-07-42,1.75858642578125,0.0972595836056396,0.0661813219159841,-0.1731979275673627,-0.0505011714994907,-9.89052932709e-05,0.0010146689601242,0.0
112_Corbin_Ave-2026-04-09_01-07-42,1.768635498046875,0.1120334109000861,0.0898673179298639,-0.2042120745122432,-0.0290427505970001,0.0210734922438859,0.0170817859470844,0.0
112_Corbin_Ave-2026-04-09_01-07-42,1.7786845703125,0.145230418309383,0.0827425806164741,-0.1698568004459142,-0.0086408909410238,0.0250128898769617,0.0315614156424999,0.0
112_Corbin_Ave-2026-04-09_01-07-42,1.788733642578125,0.1292619744028896,0.0724883131057023,-0.1103349364191293,0.0068227536976337,0.0007152743637561,0.0402478463947773,0.0
112_Corbin_Ave-2026-04-09_01-07-42,1.79878271484375,0.0753699694892391,0.0817108994811773,-0.1075450134396553,0.0184529181569814,-0.0184444859623909,0.0423061959445476,0.0
112_Corbin_Ave-2026-04-09_01-07-42,1.808831298828125,-0.0076139090698212,0.0970803180485963,-0.0587274987787008,0.0247960351407527,-0.0256989374756813,0.036779873073101,0.0
112_Corbin_Ave-2026-04-09_01-07-42,1.818880615234375,-0.0882539644490927,0.1100268933832645,0.0119669166475534,0.0260619185864925,-0.0313495248556137,0.0272513981908559,0.0
112_Corbin_Ave-2026-04-09_01-07-42,1.828929443359375,-0.0873259994165971,0.0954331353634595,-0.0109545247346162,0.0166329983621835,-0.0228700209408998,0.0170184671878814,0.0
112_Corbin_Ave-2026-04-09_01-07-42,1.838978515625,-0.0813687715126201,0.0798643948316574,0.0098480247974395,0.0075976634398102,-0.0127485347911715,0.0069814412854611,0.0
112_Corbin_Ave-2026-04-09_01-07-42,1.849027587890625,-0.0738642411014065,0.103420042464137,-0.0015063129097223,0.0027488465420901,-0.010603092610836,-0.0024645244702696,0.0
112_Corbin_Ave-2026-04-09_01-07-42,1.859076416015625,-0.0292211260482668,0.1485077229470014,-0.0084504329591989,0.0020137995015829,-0.0059107756242156,-0.0058645731769502,0.0
112_Corbin_Ave-2026-04-09_01-07-42,1.869125244140625,-0.0092633567772805,0.1558060632616281,-0.019897709646821,0.0010089888237416,0.0019194504711776,-0.0100276265293359,0.0
112_Corbin_Ave-2026-04-09_01-07-42,1.87917431640625,-0.0106916725473478,0.10608137062788,-0.0205284087657928,-0.0006485341582447,-0.0014303056523203,-0.0137091372162103,0.0
112_Corbin_Ave-2026-04-09_01-07-42,1.889223388671875,-0.0060657663123682,0.0841197141885757,-0.0264899475187063,0.0048884442076087,-0.0092344330623745,-0.0196298770606517,0.0
112_Corbin_Ave-2026-04-09_01-07-42,1.899272216796875,-0.007705350212939,0.0701525636345148,-0.0470329693317413,0.0083188340067863,-0.0168392136693,-0.0275419671088457,0.0
112_Corbin_Ave-2026-04-09_01-07-42,1.9093212890625,0.0275866567142307,0.0730249042004346,-0.0356301163077354,0.0166872851550579,-0.023640127852559,-0.0352669954299926,0.0
112_Corbin_Ave-2026-04-09_01-07-42,1.9193701171875002,0.0562546423917636,0.0898585501015186,0.0068219549745321,0.0198046546429395,-0.0377242788672447,-0.038159929215908,0.0
112_Corbin_Ave-2026-04-09_01-07-42,1.9294191894531252,0.0509329359123483,0.0781219350785017,-0.0059843351066112,0.0208217166364192,-0.0402177944779396,-0.0430952981114387,0.0
112_Corbin_Ave-2026-04-09_01-07-42,1.9394682617187502,0.0413558735433965,0.0401350265115499,-0.031098902618885,0.0193656384944915,-0.0255964249372482,-0.0439515113830566,0.0
112_Corbin_Ave-2026-04-09_01-07-42,1.9495173339843752,0.0843233470018953,0.0210661689043045,0.0246036953806877,0.0162164513021707,-0.0171661879867315,-0.0436220802366733,0.0
112_Corbin_Ave-2026-04-09_01-07-42,1.9595673828125,0.1358395626949146,0.0106178401261568,0.08198562476933,0.0084603875875473,-0.0256066303700208,-0.0373721681535244,0.0
112_Corbin_Ave-2026-04-09_01-07-42,1.9696162109375,0.1736316793421283,-0.0047106619089841,0.0029307927548885,0.000248264404945,-0.022013759240508,-0.0269213914871215,0.0
112_Corbin_Ave-2026-04-09_01-07-42,1.979665283203125,0.2005829972948878,-0.0146872815221548,-0.0153530519545078,-0.0034406343474984,-0.0116498386487364,-0.0143915964290499,0.0
112_Corbin_Ave-2026-04-09_01-07-42,1.989714111328125,0.2008392370782792,-0.0146229841142892,-0.0154360540628433,0.0038582910783588,-0.0159729477018117,-0.0015306589193642,0.0
112_Corbin_Ave-2026-04-09_01-07-42,1.999763427734375,0.1750537480344995,0.0276730198234319,-0.0291314019381999,0.0136230941861867,-0.0246570017188787,0.0104591017588973,0.0
112_Corbin_Ave-2026-04-09_01-07-42,2.0098125,0.1409881045645102,0.0296557180732488,-0.0488169301390647,0.0257878806442022,-0.0197946038097143,0.0183694902807474,0.0
112_Corbin_Ave-2026-04-09_01-07-42,2.0198610839843747,0.0914098711967468,0.0435737687885761,-0.0255260709226131,0.0400733277201652,-0.0146521022543311,0.0233756471425294,0.0
112_Corbin_Ave-2026-04-09_01-07-42,2.0299104003906248,0.0771685068111866,0.0639683220416307,0.0068663786381483,0.045887541025877,-0.0077691618353128,0.0235162619501352,0.0
112_Corbin_Ave-2026-04-09_01-07-42,2.0399592285156247,0.0745377564487978,0.0716354956686496,0.0409480964601039,0.0438806526362896,0.0019583432003855,0.0262872762978076,0.0
112_Corbin_Ave-2026-04-09_01-07-42,2.0500083007812497,0.0674336965972557,0.0459656323611736,0.0837082107782363,0.0354661308228969,0.0011266381479799,0.0226909443736076,0.0
112_Corbin_Ave-2026-04-09_01-07-42,2.0600573730468748,0.0698278251921758,0.0383715239703655,0.0729237819135189,0.0253831073641777,-0.0053482726216316,0.0189281236380338,0.0
112_Corbin_Ave-2026-04-09_01-07-42,2.0701062011718747,0.0713586880212649,0.0397474884986877,0.0714238987445831,0.0159549843519926,-0.0059155263006687,0.0139384251087903,0.0
112_Corbin_Ave-2026-04-09_01-07-42,2.0801552734374997,0.1156281474564224,0.0470545966416597,0.0444435373604297,0.0074298698455095,0.001070434693247,0.0111948372796177,0.0
112_Corbin_Ave-2026-04-09_01-07-42,2.0902043457031247,0.1114000448999926,0.0159738142013549,0.0346399362266063,0.008081279695034,-0.0030657208990305,0.0045782141387462,0.0
112_Corbin_Ave-2026-04-09_01-07-42,2.1002534179687498,0.1338332643738016,-0.0346469504892826,0.0126385322988033,0.0095658786594867,-0.0066676079295575,0.0082678627222776,0.0
112_Corbin_Ave-2026-04-09_01-07-42,2.1103020019531247,0.1575964903423562,-0.0276034617185592,0.0068371525436639,0.0095070227980613,-0.0035383938811719,0.0221621058881282,0.0
112_Corbin_Ave-2026-04-09_01-07-42,2.1203513183593747,0.1744391963327303,0.0202677120029926,0.0126519763022661,0.0098534310236573,-0.0010677122045308,0.0434753336012363,0.0
112_Corbin_Ave-2026-04-09_01-07-42,2.1304001464843747,0.1711308755023405,0.0191214645773172,0.0051250879287719,0.0187348071485757,-0.0035319349262863,0.0596886575222015,0.0
112_Corbin_Ave-2026-04-09_01-07-42,2.1404492187499997,0.1653517075790092,0.0145505033999681,-0.023899931025505,0.0273775085806846,-0.0033444298896938,0.0687567740678787,0.0
112_Corbin_Ave-2026-04-09_01-07-42,2.1504982910156247,0.156359495893307,0.0341273105293512,-0.0292038826525211,0.0371132269501686,0.0057302913628518,0.0744199827313423,0.0
112_Corbin_Ave-2026-04-09_01-07-42,2.1605471191406247,0.1253994902884587,0.033749124866724,-0.0451905563354492,0.0460643917322158,0.0175638440996408,0.0732373297214508,0.0
112_Corbin_Ave-2026-04-09_01-07-42,2.1705961914062497,0.1166037510229274,0.0154652801573276,-0.0219616564393043,0.0521158911287784,0.0247953906655311,0.0671211183071136,0.0
112_Corbin_Ave-2026-04-09_01-07-42,2.1806452636718747,0.110939953107573,-0.0323275676310062,-0.0140139123052358,0.0539807640016078,0.0342128835618495,0.0563536323606967,0.0
112_Corbin_Ave-2026-04-09_01-07-42,2.1906943359374997,0.1205755041981115,-0.1196153904616832,-0.0414157139718532,0.0614554584026336,0.0498744025826454,0.0411413870751857,0.0
112_Corbin_Ave-2026-04-09_01-07-42,2.200744140625,0.1444523100763559,-0.1857680708050727,-0.0742816262632608,0.0685331001877784,0.0494090057909488,0.0289929509162902,0.0
112_Corbin_Ave-2026-04-09_01-07-42,2.21079345703125,0.2230570967683568,-0.2397363923579454,-0.0322305369973182,0.0806829780340194,0.0518090464174747,0.0267673470079898,0.0
112_Corbin_Ave-2026-04-09_01-07-42,2.22084228515625,0.3664998644759878,-0.2705459566414356,-0.0637245764136314,0.1078464612364769,0.0528718344867229,0.0142173590138554,0.0
112_Corbin_Ave-2026-04-09_01-07-42,2.23089111328125,0.4574682024503126,-0.3931049993395805,-0.058059390258789,0.12342569231987,0.0706212669610977,0.0180624313652515,0.0
112_Corbin_Ave-2026-04-09_01-07-42,2.2409404296875,0.5139762716138735,-0.5299094250112771,-0.0667693509370088,0.1544903814792633,0.1073455512523651,0.0069288262166082,0.0
112_Corbin_Ave-2026-04-09_01-07-42,2.2509892578125,0.5889478529026732,-0.7497861016452312,-0.0900175400555133,0.1882275640964508,0.1615230441093444,-0.0176974236965179,0.0
112_Corbin_Ave-2026-04-09_01-07-42,2.261038330078125,0.6557884789776056,-1.0918167473077771,-0.1638409011572599,0.2318197041749954,0.2362424433231353,-0.0625869259238243,0.0
112_Corbin_Ave-2026-04-09_01-07-42,2.271087158203125,0.8388608809579163,-1.4517337627947329,-0.2763146031707525,0.2680919468402862,0.313709020614624,-0.1228649169206619,0.0
112_Corbin_Ave-2026-04-09_01-07-42,2.28113623046875,1.1032271260511128,-1.7759096028149126,-0.2999754647433758,0.290868878364563,0.4023244976997375,-0.1643773019313812,0.0
112_Corbin_Ave-2026-04-09_01-07-42,2.29118505859375,1.5136663412250575,-1.994023361429572,-0.3837701847612857,0.3053633868694305,0.4783273637294769,-0.1728498935699463,0.0
112_Corbin_Ave-2026-04-09_01-07-42,2.301234375,1.9817989628896115,-2.101951236706972,-0.3691811029165983,0.3130449950695038,0.479451984167099,-0.1311977356672287,0.0
112_Corbin_Ave-2026-04-09_01-07-42,2.311283447265625,2.3543944042943417,-2.117103797653318,-0.2521919693052769,0.3104393482208252,0.4508589506149292,-0.0475124157965183,0.0
112_Corbin_Ave-2026-04-09_01-07-42,2.32133203125,2.684082724125683,-2.131044060200453,-0.3513654602408408,0.3114543259143829,0.4502040445804596,0.0537393130362033,0.0
112_Corbin_Ave-2026-04-09_01-07-42,2.33138134765625,2.910789539040625,-2.3808213695794342,-0.6351274568080901,0.3204523622989654,0.4558153450489044,0.14485964179039,0.0
112_Corbin_Ave-2026-04-09_01-07-42,2.34143017578125,3.1193261987537144,-2.743880190223455,-0.8050444630086422,0.3222057819366455,0.4385993182659149,0.2229238152503967,0.0
112_Corbin_Ave-2026-04-09_01-07-42,2.351479248046875,3.3938337525025006,-3.0182237855821845,-0.8778273751467466,0.3235245943069458,0.4104382693767547,0.3066091239452362,0.0
112_Corbin_Ave-2026-04-09_01-07-42,2.3615283203125,3.762452253100276,-3.1080145311445,-1.0127940639972686,0.3410029709339142,0.3905486464500427,0.4014461934566498,0.0
112_Corbin_Ave-2026-04-09_01-07-42,2.3715771484375,4.148003183798492,-3.0537258915960788,-1.1971668810516596,0.3815237581729889,0.3763073980808258,0.5111519694328308,0.0
112_Corbin_Ave-2026-04-09_01-07-42,2.381626220703125,4.506263371989131,-2.9533254892140626,-1.38982120423913,0.4501320123672485,0.3780369460582733,0.6481044888496399,0.0
112_Corbin_Ave-2026-04-09_01-07-42,2.39167529296875,4.831310734146833,-2.7329502154082057,-1.6573609648019074,0.5382760167121887,0.399095356464386,0.8186498284339905,0.0
112_Corbin_Ave-2026-04-09_01-07-42,2.401724365234375,5.043569921514392,-2.473143094924092,-1.9247487496733664,0.6361578702926636,0.4407715797424316,1.012939691543579,0.0
112_Corbin_Ave-2026-04-09_01-07-42,2.4117734375,5.202750429645181,-2.2553706970930096,-2.141011911985278,0.7562136650085449,0.4845909476280212,1.2070311307907104,0.0
112_Corbin_Ave-2026-04-09_01-07-42,2.421822265625,5.002553435993194,-2.3098908073097464,-2.738811216396093,0.9038060903549194,0.5613206028938293,1.3711490631103516,0.0
112_Corbin_Ave-2026-04-09_01-07-42,2.43187109375,4.963137955927849,-2.3431103553444146,-3.042816959568858,1.075710654258728,0.6772650480270386,1.4924653768539429,0.0
112_Corbin_Ave-2026-04-09_01-07-42,2.44192041015625,4.974793906930088,-2.1425760925620794,-3.094570527681708,1.264731526374817,0.7884249687194824,1.5757415294647217,0.0
112_Corbin_Ave-2026-04-09_01-07-42,2.45196923828125,4.996565009233355,-1.6515087316423651,-3.202554517060518,1.4637792110443115,0.901351809501648,1.63989520072937,0.0
112_Corbin_Ave-2026-04-09_01-07-42,2.462018310546875,4.96891653932929,-0.7675958991020917,-3.366643840020895,1.6721343994140625,1.0536744594573977,1.7187989950180054,0.0
112_Corbin_Ave-2026-04-09_01-07-42,2.4720673828125,4.771824525955319,0.282013107073307,-3.506653199213743,1.9044616222381592,1.256028413772583,1.832248568534851,0.0
112_Corbin_Ave-2026-04-09_01-07-42,2.4821171874999997,4.298551764923334,1.1964818213969468,-3.6011674661666153,2.163418769836426,1.4824585914611816,1.9699071645736697,0.0
112_Corbin_Ave-2026-04-09_01-07-42,2.4921662597656247,3.37596842546612,1.9463187764465808,-3.5691847664505243,2.4436798095703125,1.6917804479599,2.111687183380127,0.0
112_Corbin_Ave-2026-04-09_01-07-42,2.5022150878906246,2.347608397416025,2.760068523958325,-3.22543445738852,2.739457368850708,1.842912197113037,2.233455181121826,0.0
112_Corbin_Ave-2026-04-09_01-07-42,2.5122644042968747,1.3341018012352286,3.560924887627363,-2.744521995258331,3.0039379596710205,1.8555099964141848,2.3342199325561523,0.0
112_Corbin_Ave-2026-04-09_01-07-42,2.5223134765624997,0.1050559731028974,4.210470161366462,-2.529801386213302,3.1700398921966553,1.9393364191055296,2.424568891525269,0.0
112_Corbin_Ave-2026-04-09_01-07-42,2.5323620605468746,-1.2306778132483362,4.38895684299171,-1.5311223568081855,3.2030746936798096,1.938862919807434,2.4646923542022705,0.0
112_Corbin_Ave-2026-04-09_01-07-42,2.5424113769531247,-2.356028289106488,4.43091850040853,-0.8316291030734777,3.0892462730407715,1.8996883630752563,2.4234113693237305,0.0
112_Corbin_Ave-2026-04-09_01-07-42,2.5524602050781247,-3.1532983187213537,4.644633731803298,-0.2279974392473697,2.818495750427246,1.8884648084640503,2.3326480388641357,0.0
112_Corbin_Ave-2026-04-09_01-07-42,2.5625092773437497,-3.671551208208501,4.882807697150111,0.5070332840755581,2.413618803024292,1.8511571884155271,2.215118885040283,0.0
112_Corbin_Ave-2026-04-09_01-07-42,2.5725583496093747,-3.985346231728792,5.04541876425147,0.9641098203271626,1.9411444664001465,1.7347402572631836,2.0787603855133057,0.0
112_Corbin_Ave-2026-04-09_01-07-42,2.5826071777343746,-4.228835839140415,5.091320099204778,1.069045528051257,1.4635220766067505,1.563270092010498,1.912304639816284,0.0
112_Corbin_Ave-2026-04-09_01-07-42,2.5926562499999997,-4.303850455853342,4.9400329746723175,0.988001568046212,1.0183310508728027,1.357588291168213,1.7089872360229492,0.0
112_Corbin_Ave-2026-04-09_01-07-42,2.6027053222656247,-4.26146385102272,4.729252627685666,0.7597805491760372,0.6355149745941162,1.1200282573699951,1.4861074686050415,0.0
112_Corbin_Ave-2026-04-09_01-07-42,2.6127543945312497,-4.127411938929558,4.522954979071021,0.306071735791862,0.3262929022312164,0.8928422331809998,1.2640151977539062,0.0
112_Corbin_Ave-2026-04-09_01-07-42,2.6228032226562497,-3.8888779080986975,4.237882484427094,-0.2568535313755273,0.1231233105063438,0.6960397958755493,1.0537060499191284,0.0
112_Corbin_Ave-2026-04-09_01-07-42,2.6328522949218747,-3.5979549338608976,3.8787060581743713,-0.5284580571591854,0.0263863764703273,0.4378871023654938,0.8614031672477722,0.0
112_Corbin_Ave-2026-04-09_01-07-42,2.6429011230468746,-3.3862001888841387,3.541881164461374,-0.7026657462909818,0.0174882784485816,0.1442133784294128,0.6996073126792908,0.0
112_Corbin_Ave-2026-04-09_01-07-42,2.6529501953124996,-3.300909385089576,3.284883256179094,-0.8832944083809852,0.0677091032266616,-0.0901203006505966,0.5671030282974243,0.0
112_Corbin_Ave-2026-04-09_01-07-42,2.6629992675781247,-3.243618056593835,3.0461873127847907,-0.9436734737589956,0.1524092853069305,-0.2114363312721252,0.4605374634265899,0.0
112_Corbin_Ave-2026-04-09_01-07-42,2.6730483398437497,-3.1545813442692157,2.7107389681220053,-0.7901397393435239,0.2468550950288772,-0.2477035075426101,0.3707716464996338,0.0
112_Corbin_Ave-2026-04-09_01-07-42,2.6830974121093747,-3.0585262776151296,2.309229713052511,-0.6288640124991536,0.3359548449516296,-0.2246364057064056,0.287581592798233,0.0
112_Corbin_Ave-2026-04-09_01-07-42,2.6931462402343747,-2.8846976509287954,1.9706489155828952,-0.4050423976317048,0.42177414894104,-0.1629634499549865,0.2080268263816833,0.0
112_Corbin_Ave-2026-04-09_01-07-42,2.7031953124999997,-2.6035396993800997,1.7465683575183153,-0.2077291427224874,0.4854756593704223,-0.0641280263662338,0.153516337275505,0.0
112_Corbin_Ave-2026-04-09_01-07-42,2.7132443847656247,-2.237153195618093,1.541466640689969,0.0148120769456028,0.5190455913543701,0.0527226850390434,0.1306467205286026,0.0
112_Corbin_Ave-2026-04-09_01-07-42,2.7232934570312497,-1.797552694824338,1.3742811052799224,0.2001610455557703,0.5289821028709412,0.1720314770936966,0.138404905796051,0.0
112_Corbin_Ave-2026-04-09_01-07-42,2.7333420410156246,-1.3953200939163566,1.1939473344832658,0.3461410035908222,0.5138721466064453,0.2743759453296661,0.1712741702795028,0.0
112_Corbin_Ave-2026-04-09_01-07-42,2.7433913574218747,-1.0682657758504153,0.987850761398673,0.4838432548850774,0.4741473793983459,0.3354997336864471,0.2088860869407653,0.0
112_Corbin_Ave-2026-04-09_01-07-42,2.7534401855468746,-0.7745154692322015,0.8411316754341125,0.6438531995773316,0.4054521918296814,0.3232004642486572,0.25116828083992,0.0
112_Corbin_Ave-2026-04-09_01-07-42,2.7634892578124997,-0.5747925228327513,0.7319529233127832,0.6830167507082223,0.3184991180896759,0.2692287266254425,0.2862212657928467,0.0
112_Corbin_Ave-2026-04-09_01-07-42,2.7735385742187497,-0.5341986466377974,0.5616816968470811,0.6552072450235485,0.235088363289833,0.1857948154211044,0.2918764948844909,0.0
112_Corbin_Ave-2026-04-09_01-07-42,2.7835871582031246,-0.5387009264931082,0.5157996511161327,0.6643383537232875,0.1628348529338836,0.0718804448843002,0.2678730189800262,0.0
112_Corbin_Ave-2026-04-09_01-07-42,2.7936362304687496,-0.5179091906160116,0.6059510466843843,0.6278495747596025,0.1038996279239654,-0.0365853123366832,0.2211454510688781,0.0
112_Corbin_Ave-2026-04-09_01-07-42,2.80368603515625,-0.6075266254380345,0.6118827748209238,0.5442243660897016,0.05549006909132,-0.0914553478360176,0.1530212610960006,0.0
112_Corbin_Ave-2026-04-09_01-07-42,2.8137343749999997,-0.7038917809545994,0.44310675534904,0.439223776435852,0.0047416742891073,-0.0901810303330421,0.0608569756150245,0.0
112_Corbin_Ave-2026-04-09_01-07-42,2.823784423828125,-0.6636684916377067,0.2791699926018715,0.3745686411738395,-0.0422459207475185,-0.0491634011268615,-0.0448166616261005,0.0
112_Corbin_Ave-2026-04-09_01-07-42,2.8338330078125,-0.443216645464301,0.2469517305642366,0.3038192806899547,-0.0816202163696289,-0.0022803167812526,-0.1311531513929367,0.0
112_Corbin_Ave-2026-04-09_01-07-42,2.84388232421875,-0.4575391853272915,0.2482897011697292,0.312763342384994,-0.1067890152335167,0.0270022228360176,-0.1759056597948074,0.0
112_Corbin_Ave-2026-04-09_01-07-42,2.85393115234375,-0.2191489468812942,0.274049580848217,0.2370055060893297,-0.1183031946420669,0.022885775193572,-0.1739298552274704,0.0
112_Corbin_Ave-2026-04-09_01-07-42,2.8639812011718746,-0.0233875975891947,0.2792506566226482,0.1804442454338073,-0.116347536444664,-0.0033163675107061,-0.134222000837326,0.0
112_Corbin_Ave-2026-04-09_01-07-42,2.8740302734374996,0.116107674601674,0.2570937698721885,0.1106967554688453,-0.0997813418507576,-0.0297208111733198,-0.0842081159353256,0.0
112_Corbin_Ave-2026-04-09_01-07-42,2.8840793457031246,0.1278629943251609,0.1548708282381296,-0.0125488081887364,-0.0746830552816391,-0.0550102740526199,-0.0345236547291278,0.0
112_Corbin_Ave-2026-04-09_01-07-42,2.8941279296875,0.0830415635630488,0.0622919132620096,-0.0623927432879805,-0.0404222831130027,-0.0651398673653602,0.0024719140492379,0.0
112_Corbin_Ave-2026-04-09_01-07-42,2.9041772460937496,-0.0062193129062652,-0.0104272859901189,-0.1119867952793836,-0.0057105608284473,-0.0526949279010295,0.0262159518897533,0.0
112_Corbin_Ave-2026-04-09_01-07-42,2.91422607421875,-0.097808340062201,-0.0218371532768011,-0.1385085992410779,0.0152402613312006,-0.0390590094029903,0.0413339212536811,0.0
112_Corbin_Ave-2026-04-09_01-07-42,2.9242751464843746,-0.1986556094288825,0.0327291341692209,-0.09136661657691,0.0341429561376571,-0.0307333618402481,0.0498889163136482,0.0
112_Corbin_Ave-2026-04-09_01-07-42,2.9343242187499996,-0.3018094021722674,0.1097451538324356,-0.0477840799599885,0.0423641353845596,-0.0404419153928756,0.0525334365665912,0.0
112_Corbin_Ave-2026-04-09_01-07-42,2.944373046875,-0.4772410801410675,0.1770247923791408,0.0633686025828123,0.0390320308506488,-0.0643418505787849,0.0442394912242889,0.0
112_Corbin_Ave-2026-04-09_01-07-42,2.9544221191406246,-0.6944269102558494,0.210143218126893,0.1460065537810325,0.0232903528958559,-0.0820878222584724,0.022246841341257,0.0
112_Corbin_Ave-2026-04-09_01-07-42,2.9644711914062496,-0.9183350343629716,0.2708767960309982,0.1948848587185144,0.0011434351326897,-0.0801762416958808,-0.016603622585535,0.0
112_Corbin_Ave-2026-04-09_01-07-42,2.9745202636718746,-1.120973283687234,0.3568716564416885,0.156311674696207,-0.020761864259839,-0.0681688487529754,-0.0692322179675102,0.0
112_Corbin_Ave-2026-04-09_01-07-42,2.984569091796875,-1.312924427041411,0.4272966072767972,0.0967155763894319,-0.0418235026299953,-0.0575660243630409,-0.126283660531044,0.0
112_Corbin_Ave-2026-04-09_01-07-42,2.9946181640624996,-1.461942729859054,0.5146288537710905,0.0236427413940429,-0.0578554645180702,-0.072057344019413,-0.1857259422540664,0.0
112_Corbin_Ave-2026-04-09_01-07-42,3.0046669921875,-1.5595537937834858,0.6304904446572065,0.0068193246260285,-0.0784455388784408,-0.1113196015357971,-0.2317340672016143,0.0
112_Corbin_Ave-2026-04-09_01-07-42,3.014716064453125,-1.6543375253275037,0.781211752000451,0.0093272157937288,-0.1048696935176849,-0.1629825234413147,-0.2632629573345184,0.0
112_Corbin_Ave-2026-04-09_01-07-42,3.0247651367187496,-1.7990560851246118,0.9061386928737164,-0.0086655370146036,-0.1376166492700576,-0.21089568734169,-0.2824979126453399,0.0
112_Corbin_Ave-2026-04-09_01-07-42,3.0348142089843746,-2.004095842632651,1.0412246241897345,-0.067968205332756,-0.1698217242956161,-0.2575385570526123,-0.2866167426109314,0.0
112_Corbin_Ave-2026-04-09_01-07-42,3.044863037109375,-2.2469281551793214,1.2243828047573566,-0.1341606331646442,-0.2065440118312835,-0.3046348392963409,-0.2746284008026123,0.0
112_Corbin_Ave-2026-04-09_01-07-42,3.054912109375,-2.5738135464191436,1.4850316367626188,-0.1917120739012956,-0.2513706088066101,-0.3376862704753876,-0.2518466711044311,0.0
112_Corbin_Ave-2026-04-09_01-07-42,3.0649611816406246,-2.944848168247938,1.8036895901441572,-0.3660544953286647,-0.2991167306900024,-0.3609736263751983,-0.2204471379518509,0.0
112_Corbin_Ave-2026-04-09_01-07-42,3.075010009765625,-3.367029624468088,2.156816214838624,-0.5607832867026329,-0.3477540612220764,-0.3839364647865295,-0.1933017969131469,0.0
112_Corbin_Ave-2026-04-09_01-07-42,3.0850593261718746,-3.858957693870366,2.538464585140347,-0.8213494088605046,-0.3808100521564483,-0.4062468111515045,-0.1759171783924102,0.0
112_Corbin_Ave-2026-04-09_01-07-42,3.09510791015625,-4.412303816309571,2.9101263989567756,-1.1514204443991185,-0.3927556574344635,-0.446929007768631,-0.1852550208568573,0.0
112_Corbin_Ave-2026-04-09_01-07-42,3.105156982421875,-4.893068686662614,3.312573227137327,-1.4549422034472226,-0.3790079951286316,-0.5072295665740967,-0.2222844511270523,0.0
112_Corbin_Ave-2026-04-09_01-07-42,3.1152062988281246,-5.339724366664886,3.793803084653616,-1.7332199233844876,-0.3494695425033569,-0.5918437838554382,-0.2835730910301208,0.0
112_Corbin_Ave-2026-04-09_01-07-42,3.125255126953125,-5.716012671238183,4.277843907937407,-1.936125883734226,-0.298039823770523,-0.7168931365013123,-0.4008487164974212,0.0
112_Corbin_Ave-2026-04-09_01-07-42,3.1353044433593746,-6.079084935885668,4.612929849028587,-2.0886653464153406,-0.243892416357994,-0.8854557871818542,-0.5797492265701294,0.0
112_Corbin_Ave-2026-04-09_01-07-42,3.14535302734375,-6.465218927168846,4.8445197598099705,-2.12689950774163,-0.1971393525600433,-1.1132420301437378,-0.8140474557876587,0.0
112_Corbin_Ave-2026-04-09_01-07-42,3.155402099609375,-6.7105649761021136,5.028665197849273,-2.03964471039772,-0.1815406829118728,-1.4190692901611328,-1.0912748575210571,0.0
112_Corbin_Ave-2026-04-09_01-07-42,3.1654511718749996,-6.794722684213519,5.179349095791578,-1.8146031983464952,-0.2130242139101028,-1.8248345851898191,-1.4066044092178345,0.0
112_Corbin_Ave-2026-04-09_01-07-42,3.1755002441406246,-6.635212505736947,5.2937084654212,-1.523240079125762,-0.3063424229621887,-2.2706611156463623,-1.738682985305786,0.0
112_Corbin_Ave-2026-04-09_01-07-42,3.185549072265625,-6.079735508748889,5.40133648096919,-1.1757979298084973,-0.4826002418994903,-2.785961866378784,-2.05176305770874,0.0
112_Corbin_Ave-2026-04-09_01-07-42,3.19559814453125,-5.325046437492967,5.318253708612919,-0.6773465961173176,-0.719058096408844,-3.248398780822754,-2.336747407913208,0.0
112_Corbin_Ave-2026-04-09_01-07-42,3.2056472167968746,-3.0637840520128607,5.034750070720911,-0.3872174026057124,-0.9767292737960817,-3.609173059463501,-2.581620216369629,0.0
112_Corbin_Ave-2026-04-09_01-07-42,3.215696044921875,-1.5001163931697603,4.888084176248312,-0.4286588355407119,-1.265658617019653,-3.836713314056397,-2.7452592849731445,0.0
112_Corbin_Ave-2026-04-09_01-07-42,3.2257453613281246,-0.0159508717171847,4.4187756426721805,-0.85708210875988,-1.5605863332748413,-3.797385215759278,-2.823453903198242,0.0
112_Corbin_Ave-2026-04-09_01-07-42,3.235795166015625,1.5650329558469354,3.8003929844379423,-1.1362217062234878,-1.8226802349090576,-3.6027538776397705,-2.826263189315796,0.0
112_Corbin_Ave-2026-04-09_01-07-42,3.24584423828125,3.041511722189188,3.1223113520443437,-1.6421254017472269,-2.014486074447632,-3.3044047355651855,-2.7553701400756836,0.0
112_Corbin_Ave-2026-04-09_01-07-42,3.2558930664062498,4.179036327704787,2.282515309128165,-2.2361133311763406,-2.112081289291382,-2.94508695602417,-2.6277692317962646,0.0
112_Corbin_Ave-2026-04-09_01-07-42,3.2659421386718748,4.739583175303042,1.4122791197627782,-2.681311798107624,-2.1164872646331787,-2.5809292793273926,-2.4731833934783936,0.0
112_Corbin_Ave-2026-04-09_01-07-42,3.2759912109375,4.860155135837197,0.6723901427537202,-3.002571458420157,-2.0472452640533447,-2.278977394104004,-2.3179612159729004,0.0
112_Corbin_Ave-2026-04-09_01-07-42,3.2860400390624998,4.747176991432905,0.6180915663331746,-2.851160999768972,-1.922000765800476,-2.028794288635254,-2.1989586353302,0.0
112_Corbin_Ave-2026-04-09_01-07-42,3.29608935546875,4.661884141811728,-0.788019093927741,-3.3625007488667964,-1.7625054121017456,-1.7987277507781982,-2.1404483318328857,0.0
112_Corbin_Ave-2026-04-09_01-07-42,3.3061379394531247,4.839157940515875,-1.4593290402293204,-3.291976429310441,-1.5983316898345947,-1.5874053239822388,-2.1527602672576904,0.0
112_Corbin_Ave-2026-04-09_01-07-42,3.3161870117187497,5.2153030372261995,-2.1248270853817464,-3.086430475845933,-1.4513230323791504,-1.4062930345535278,-2.2225518226623535,0.0
112_Corbin_Ave-2026-04-09_01-07-42,3.326236328125,5.07927018044889,-2.1727923671275375,-2.9749913775771852,-1.333229422569275,-1.237526774406433,-2.308215856552124,0.0
112_Corbin_Ave-2026-04-09_01-07-42,3.3362851562499998,6.395169823908805,-3.181957719233632,-2.4530975012391805,-1.2507423162460327,-1.1010019779205322,-2.345147609710694,0.0
112_Corbin_Ave-2026-04-09_01-07-42,3.346334228515625,7.08049602060318,-3.271097307410836,-2.0772575249552725,-1.1896891593933103,-1.0030834674835205,-2.2683873176574707,0.0
112_Corbin_Ave-2026-04-09_01-07-42,3.3563830566406248,7.39991502148509,-3.102459819626808,-1.866843088671565,-1.1210932731628418,-0.9388525485992432,-2.049861192703247,0.0
112_Corbin_Ave-2026-04-09_01-07-42,3.3664321289062498,7.183202361840009,-2.879910124391317,-1.6231418843358754,-1.0355709791183472,-0.9056925773620604,-1.727567434310913,0.0
112_Corbin_Ave-2026-04-09_01-07-42,3.376481201171875,7.0981281234055755,-2.9297084667831657,-1.5398714804530145,-0.945706844329834,-0.87862229347229,-1.3705881834030151,0.0
112_Corbin_Ave-2026-04-09_01-07-42,3.3865302734375,5.73763413593769,-2.4366671754419804,-1.3577800523340702,-0.851622462272644,-0.8220263719558716,-1.0609076023101809,0.0
112_Corbin_Ave-2026-04-09_01-07-42,3.3965788574218747,4.957974874076247,-2.2425608998805284,-1.289071257767081,-0.7511674761772156,-0.7251200675964355,-0.8462842106819153,0.0
112_Corbin_Ave-2026-04-09_01-07-42,3.4066281738281248,4.232916386452317,-2.2572201243519783,-1.2996902669370174,-0.6481980085372925,-0.5725045800209045,-0.7553861737251282,0.0
112_Corbin_Ave-2026-04-09_01-07-42,3.41667724609375,3.817785725526511,-2.279423188331723,-1.2263847922295332,-0.5483564138412476,-0.4026968479156494,-0.7573276162147522,0.0
112_Corbin_Ave-2026-04-09_01-07-42,3.4267260742187498,3.76968951087743,-2.199078901028633,-1.1736375369042158,-0.4571259021759033,-0.2364750057458877,-0.7768040895462036,0.0
112_Corbin_Ave-2026-04-09_01-07-42,3.436775390625,3.937769072517753,-2.0298083760380745,-1.1270587410807609,-0.3664548695087433,-0.0987309888005256,-0.752781331539154,0.0
112_Corbin_Ave-2026-04-09_01-07-42,3.44682421875,4.07843192718327,-1.864538318860531,-1.017450365370512,-0.2723996043205261,-0.0035485380794852,-0.6596986651420593,0.0
112_Corbin_Ave-2026-04-09_01-07-42,3.4568730468749997,4.05029801184982,-1.694393349123001,-1.0404647457331415,-0.1804329454898834,0.076661080121994,-0.5109931230545044,0.0
112_Corbin_Ave-2026-04-09_01-07-42,3.4669221191406248,3.824912508666515,-1.4732424147695302,-1.0630769750356674,-0.0793337374925613,0.161797285079956,-0.3415914177894592,0.0
112_Corbin_Ave-2026-04-09_01-07-42,3.4769711914062498,3.5376448420658706,-1.1866297049462795,-0.9366448902964593,0.0246043819934129,0.2108583003282547,-0.170598104596138,0.0
112_Corbin_Ave-2026-04-09_01-07-42,3.4870200195312497,3.1888869339749215,-0.9585784896850584,-0.7017173595249653,0.1175931245088577,0.2125813961029052,-0.0159797221422195,0.0
112_Corbin_Ave-2026-04-09_01-07-42,3.4970693359375,2.7237323052078484,-0.7686755110323429,-0.5370189647555351,0.184761494398117,0.2105725705623626,0.1082972288131713,0.0
112_Corbin_Ave-2026-04-09_01-07-42,3.5071181640624998,2.319799330122769,-0.5799415761590003,-0.3161503544747829,0.2220902144908905,0.2074165195226669,0.1913467496633529,0.0
112_Corbin_Ave-2026-04-09_01-07-42,3.5171669921874997,1.9919594146370887,-0.4090788135409355,-0.091698625010252,0.2338518053293228,0.2030691653490066,0.2465261220932006,0.0
112_Corbin_Ave-2026-04-09_01-07-42,3.52721630859375,1.7279066194072366,-0.2623357621788978,0.0911211173832416,0.2163186073303222,0.2020027339458465,0.2861811518669128,0.0
112_Corbin_Ave-2026-04-09_01-07-42,3.5372651367187498,1.7416374769873917,-0.2502916886419057,0.0740431413322687,0.1732355952262878,0.2035745233297348,0.3175821900367737,0.0
112_Corbin_Ave-2026-04-09_01-07-42,3.5473139648437497,1.3126459023609756,-0.0232394212901592,0.3581722176462412,0.1103915572166442,0.1882626116275787,0.3494910001754761,0.0
112_Corbin_Ave-2026-04-09_01-07-42,3.5573630371093747,1.0971097391493618,0.0961672948569059,0.3316881153464317,0.0362273156642913,0.1698351502418518,0.3769891858100891,0.0
112_Corbin_Ave-2026-04-09_01-07-42,3.5674121093749998,0.909878463923931,0.1948340053141116,0.2376303599894046,-0.0319874249398708,0.1374867856502533,0.3918584287166595,0.0
112_Corbin_Ave-2026-04-09_01-07-42,3.5774611816406248,0.7311610422827303,0.2877951976060867,0.1546715062737464,-0.0833994820713996,0.0918414294719696,0.3909260630607605,0.0
112_Corbin_Ave-2026-04-09_01-07-42,3.58751025390625,0.5403682386508211,0.3902835121780634,-0.0116179570794105,-0.1216215789318084,0.0583641901612281,0.3812920749187469,0.0
112_Corbin_Ave-2026-04-09_01-07-42,3.5975590820312497,0.3687930534470826,0.3909884455770254,-0.1889350104033947,-0.13250432908535,0.0475988946855068,0.3564431667327881,0.0
112_Corbin_Ave-2026-04-09_01-07-42,3.6076079101562497,0.2779880893409252,0.3665454937160015,-0.3457914595007896,-0.1219725161790847,0.0487907044589519,0.3216407299041748,0.0
112_Corbin_Ave-2026-04-09_01-07-42,3.6176572265624998,0.3184237792994827,0.343856692045927,-0.4558306278437375,-0.0896137729287147,0.0701071843504905,0.2897509634494781,0.0
112_Corbin_Ave-2026-04-09_01-07-42,3.6277060546874997,0.4479914586506783,0.3072264587849378,-0.4772749824106693,-0.0481542311608791,0.0887035876512527,0.2669199109077453,0.0
112_Corbin_Ave-2026-04-09_01-07-42,3.63775537109375,0.6021428500404581,0.212353295391798,-0.4803519056379794,-0.0056158257648348,0.0911273285746574,0.2503995299339294,0.0
112_Corbin_Ave-2026-04-09_01-07-42,3.6478039550781247,0.6180319451004266,0.2134644715040922,-0.48143268661201,0.0266986358910799,0.0792462453246116,0.254283457994461,0.0
112_Corbin_Ave-2026-04-09_01-07-42,3.6578530273437497,0.8116055750899016,0.1521381884038448,-0.4058966763734817,0.0424222089350223,0.0471950955688953,0.2779970467090606,0.0
112_Corbin_Ave-2026-04-09_01-07-42,3.66790234375,1.033642936889082,0.148995214203,-0.2837128967285156,0.0470805391669273,-0.0010600909590721,0.3124527335166931,0.0
112_Corbin_Ave-2026-04-09_01-07-42,3.6779511718749998,1.115883267071843,0.0907458543300628,-0.1852443391919136,0.0447819642722606,-0.058091152459383,0.3269608616828918,0.0
112_Corbin_Ave-2026-04-09_01-07-42,3.6880002441406248,1.0985724321130663,-0.0697930826723575,-0.1513964301258325,0.0352767370641231,-0.0841666683554649,0.3068592846393585,0.0
112_Corbin_Ave-2026-04-09_01-07-42,3.6980490722656247,1.090983803614974,-0.3109481096565723,-0.251130477553606,0.0307176690548658,-0.0991405621170997,0.2386903315782547,0.0
112_Corbin_Ave-2026-04-09_01-07-42,3.7080981445312498,1.1432556234482676,-0.6789443867027759,-0.3019038024574518,0.0191304087638854,-0.0989003032445907,0.1235201656818389,0.0
112_Corbin_Ave-2026-04-09_01-07-42,3.7181469726562497,1.4240329781815408,-1.2572177373886109,-0.3823807762295007,-4.59486618638e-05,-0.0728090554475784,0.002973508555442,0.0
112_Corbin_Ave-2026-04-09_01-07-42,3.7281962890625,2.1423183184087273,-1.8060212479621172,-0.4944774616241454,-0.0131146414205431,-0.0633323118090629,-0.0714760720729827,0.0
112_Corbin_Ave-2026-04-09_01-07-42,3.738245361328125,3.2701416141211985,-2.1648305944681168,-0.5646890619695186,-0.0186092741787433,-0.1021241843700409,-0.0603291429579257,0.0
112_Corbin_Ave-2026-04-09_01-07-42,3.7482939453124997,4.584890333980321,-2.3611878638267516,-0.5773118121773004,-0.0125248339027166,-0.1717429310083389,0.0222775042057037,0.0
112_Corbin_Ave-2026-04-09_01-07-42,3.7583432617187498,5.793946974790096,-2.5784745239675044,-0.5956295591562986,0.0296452566981315,-0.1859399825334549,0.1392922699451446,0.0
112_Corbin_Ave-2026-04-09_01-07-42,3.7683920898437497,6.608278321582079,-2.7791654386162756,-0.9157061471641064,0.129538431763649,-0.1214816570281982,0.2691187262535095,0.0
112_Corbin_Ave-2026-04-09_01-07-42,3.7784411621093748,6.956595500168204,-2.979282937291264,-1.2441805611610413,0.2822819054126739,0.0599472559988498,0.3819456994533539,0.0
112_Corbin_Ave-2026-04-09_01-07-42,3.7884902343749998,7.092126837164163,-3.157783647441864,-1.6820073302805425,0.4785918295383453,0.3311982452869415,0.4688646495342254,0.0
112_Corbin_Ave-2026-04-09_01-07-42,3.7985390624999997,7.157312718302011,-3.3348201302587985,-2.011227594208717,0.6953182816505432,0.6838939785957336,0.5280120968818665,0.0
112_Corbin_Ave-2026-04-09_01-07-42,3.8085878906249997,7.280767248535156,-3.511132974976301,-2.340698033505678,0.9046122431755066,1.0620514154434204,0.570160984992981,0.0
112_Corbin_Ave-2026-04-09_01-07-42,3.8186372070312498,7.493724355039,-3.629533728951216,-2.605014155846834,1.0996124744415283,1.4201749563217163,0.6115190982818604,0.0
112_Corbin_Ave-2026-04-09_01-07-42,3.8286862792968748,7.844424629369378,-3.5799230180859563,-2.7458073588937517,1.2663559913635254,1.6935242414474487,0.6931596398353577,0.0
112_Corbin_Ave-2026-04-09_01-07-42,3.8387351074218747,8.274353338715434,-3.3649189159244295,-2.75431507499814,1.4037325382232666,1.9042582511901855,0.8210920691490173,0.0
112_Corbin_Ave-2026-04-09_01-07-42,3.8487841796874998,8.691091142576932,-3.1392554725825783,-2.8698405657976864,1.5056076049804688,2.139716386795044,0.9844087958335876,0.0
112_Corbin_Ave-2026-04-09_01-07-42,3.8588330078124997,9.078784638261794,-3.0903941187798973,-3.0445427604481576,1.5556225776672363,2.3797996044158936,1.169362187385559,0.0
112_Corbin_Ave-2026-04-09_01-07-42,3.8688813476562496,9.470040210342408,-2.9672330185353752,-3.1438059754937884,1.566685438156128,2.610276222229004,1.3801392316818235,0.0
112_Corbin_Ave-2026-04-09_01-07-42,3.8789304199218746,9.669112583878636,-2.7258938671559094,-3.3308272612303496,1.539935827255249,2.8057327270507812,1.6067888736724854,0.0
112_Corbin_Ave-2026-04-09_01-07-42,3.88897900390625,9.76867828900218,-2.494792032152414,-3.483784364801645,1.4699124097824097,2.9350011348724365,1.8523272275924685,0.0
112_Corbin_Ave-2026-04-09_01-07-42,3.8990283203125,9.764384391200542,-2.178437679538131,-3.611268296681344,1.365609884262085,3.0323314666748047,2.103184938430786,0.0
112_Corbin_Ave-2026-04-09_01-07-42,3.9090773925781246,9.56132440933287,-1.744202212908864,-3.97468279889524,1.2455164194107056,3.101754665374756,2.3471901416778564,0.0
112_Corbin_Ave-2026-04-09_01-07-42,3.919126220703125,9.28467195250988,-1.1291747103214262,-4.406969469544292,1.1560288667678833,3.151814222335815,2.5880444049835205,0.0
112_Corbin_Ave-2026-04-09_01-07-42,3.929175537109375,8.91872150207758,-0.2134299847126007,-5.028982008713483,1.143613338470459,3.213472604751587,2.8138113021850586,0.0
112_Corbin_Ave-2026-04-09_01-07-42,3.93922412109375,8.288996781095863,0.8287924183428287,-5.855810433506965,1.2420493364334106,3.2944416999816895,3.007070302963257,0.0
112_Corbin_Ave-2026-04-09_01-07-42,3.949273193359375,7.369820911994576,1.9649568414211271,-6.81064681405425,1.460170030593872,3.4212331771850586,3.1640188694000244,0.0
112_Corbin_Ave-2026-04-09_01-07-42,3.959322265625,6.242272341570258,3.3099358643710612,-7.784181465330719,1.802523851394653,3.6161985397338863,3.2598471641540527,0.0
112_Corbin_Ave-2026-04-09_01-07-42,3.969371337890625,4.80654921785593,4.673549445164204,-8.672554784411192,2.2390494346618652,3.863356351852417,3.282179594039917,0.0
112_Corbin_Ave-2026-04-09_01-07-42,3.97942041015625,3.055215253371,5.87995411016047,-9.297198841127752,2.734909772872925,4.126760005950928,3.2309377193450928,0.0
112_Corbin_Ave-2026-04-09_01-07-42,3.98946923828125,-0.2835812331728637,8.14185216319561,-8.798597577571869,3.2058422565460205,4.3355536460876465,3.1253509521484375,0.0
112_Corbin_Ave-2026-04-09_01-07-42,3.999518310546875,-1.931652976103872,9.006984891942142,-7.686355881872773,3.5868749618530273,4.361082077026367,2.9520506858825684,0.0
112_Corbin_Ave-2026-04-09_01-07-42,4.0095673828125005,-3.2639591260939835,9.793528068098423,-6.292658712983131,3.7767891883850098,4.178191184997559,2.739041328430176,0.0
112_Corbin_Ave-2026-04-09_01-07-42,4.0196164550781255,-4.361066965547204,10.39082234559655,-4.932230191966891,3.7264740467071538,3.8797221183776855,2.489718198776245,0.0
112_Corbin_Ave-2026-04-09_01-07-42,4.0296652832031254,-5.48705193991661,10.719067627012729,-3.676918580460548,3.421872854232788,3.54435133934021,2.207484722137451,0.0
112_Corbin_Ave-2026-04-09_01-07-42,4.0397143554687505,-5.351280948945879,10.73355909370184,-3.909025793114304,2.8701624870300293,3.2471766471862793,1.9118530750274656,0.0
112_Corbin_Ave-2026-04-09_01-07-42,4.04976318359375,-7.327768653684854,10.775254209136962,-1.9022199608705936,2.1187045574188232,2.9882142543792725,1.614956974983215,0.0
112_Corbin_Ave-2026-04-09_01-07-42,4.059812255859375,-7.936108056810498,10.470486833941935,-1.6929191849172114,1.2874418497085571,2.765497922897339,1.3138844966888428,0.0
112_Corbin_Ave-2026-04-09_01-07-42,4.069862304687501,-8.297531969729066,10.138244591844082,-1.8582083851866424,0.4834341704845428,2.558936357498169,1.0303784608840942,0.0
112_Corbin_Ave-2026-04-09_01-07-42,4.079911376953126,-8.323063301348686,9.867304667448996,-2.339305556233972,-0.2010472267866134,2.3794941902160645,0.807138979434967,0.0
112_Corbin_Ave-2026-04-09_01-07-42,4.089960449218751,-8.305769052198528,9.483713930907845,-3.0174428643375633,-0.7108706831932068,2.225168466567993,0.6561442613601685,0.0
112_Corbin_Ave-2026-04-09_01-07-42,4.100009033203126,-8.5001746029675,8.83968128311038,-3.79489555606544,-1.017488956451416,2.1081862449645996,0.5247785449028015,0.0
112_Corbin_Ave-2026-04-09_01-07-42,4.110058349609376,-8.716867388868332,8.116757469427585,-4.361526399752497,-1.1282122135162354,2.0007877349853516,0.382507711648941,0.0
112_Corbin_Ave-2026-04-09_01-07-42,4.120107421875001,-8.767160821300745,7.486414908808469,-4.588029508788884,-1.0691083669662476,1.8200771808624268,0.2240030318498611,0.0
112_Corbin_Ave-2026-04-09_01-07-42,4.130156250000001,-8.795307888376712,6.800145878306031,-4.6239574389994145,-0.8716434836387634,1.5300811529159546,0.0401790365576744,0.0
112_Corbin_Ave-2026-04-09_01-07-42,4.14020556640625,-8.707261356133221,6.039848904040455,-4.395867937554419,-0.5780116319656372,1.182981014251709,-0.1746925264596939,0.0
112_Corbin_Ave-2026-04-09_01-07-42,4.150254150390626,-8.449647361779212,5.289407553356885,-3.87305899219811,-0.2600075304508209,0.8129635453224182,-0.4133581221103668,0.0
112_Corbin_Ave-2026-04-09_01-07-42,4.160303222656251,-8.011639975395799,4.530903307726979,-3.13339622516036,0.0139520987868309,0.4711915552616119,-0.6485541462898254,0.0
112_Corbin_Ave-2026-04-09_01-07-42,4.170352294921876,-7.479153977894782,3.615026480171084,-2.253434760594368,0.1941251009702682,0.215545117855072,-0.867158830165863,0.0
112_Corbin_Ave-2026-04-09_01-07-42,4.180401367187501,-6.89192458281517,2.6917677256703376,-1.3818155924379825,0.2619946897029876,0.0491817146539688,-1.0502727031707764,0.0
112_Corbin_Ave-2026-04-09_01-07-42,4.190450195312501,-6.050325874391198,2.0027818374246356,-0.4994625565603375,0.2325401902198791,-0.0913706719875335,-1.1786727905273438,0.0
112_Corbin_Ave-2026-04-09_01-07-42,4.200499267578126,-5.183724242135882,1.4241010749816894,0.2339297519057989,0.1382387280464172,-0.2408248782157898,-1.2311946153640747,0.0
112_Corbin_Ave-2026-04-09_01-07-42,4.210548339843751,-4.452633488610386,0.7964350400954484,0.662894000133872,0.0040455050766468,-0.3649316430091858,-1.221673846244812,0.0
112_Corbin_Ave-2026-04-09_01-07-42,4.220597412109376,-3.880116509494185,0.0659907677799463,0.9035096595443785,-0.1575516462326049,-0.4555307924747467,-1.1830339431762695,0.0
112_Corbin_Ave-2026-04-09_01-07-42,4.230646484375001,-3.337697146999836,-0.544462266498804,1.0663976438909768,-0.3281717002391815,-0.531091034412384,-1.123974084854126,0.0
112_Corbin_Ave-2026-04-09_01-07-42,4.240695312500001,-2.852742716002464,-0.9931301631063222,1.0241092387378214,-0.4951095581054687,-0.6004400253295898,-1.0430933237075806,0.0
112_Corbin_Ave-2026-04-09_01-07-42,4.250744384765626,-2.4552350977897643,-1.4382985271602868,0.7503080796927213,-0.6349461078643799,-0.630755603313446,-0.9480974674224854,0.0
112_Corbin_Ave-2026-04-09_01-07-42,4.260793212890626,-2.192521734470129,-1.868991791138053,0.4432648685202002,-0.724676251411438,-0.6463289856910706,-0.8577311038970947,0.0
112_Corbin_Ave-2026-04-09_01-07-42,4.270842285156251,-1.8890582814805208,-2.1697160284221173,0.0832546217918396,-0.7605410814285278,-0.6603385210037231,-0.7747154235839844,0.0
112_Corbin_Ave-2026-04-09_01-07-42,4.2808916015625,-1.5621290510989725,-2.412377952837944,-0.2864097345970571,-0.7481927871704102,-0.6672611236572266,-0.6920027136802673,0.0
112_Corbin_Ave-2026-04-09_01-07-42,4.290940429687501,-1.3298252929598091,-2.6756501190841195,-0.6734884593844414,-0.69007807970047,-0.6518552899360657,-0.6002389788627625,0.0
112_Corbin_Ave-2026-04-09_01-07-42,4.300989257812501,-1.1665417334243655,-2.826643813627958,-1.036285121960938,-0.5939033627510071,-0.6230595707893372,-0.5052219033241272,0.0
112_Corbin_Ave-2026-04-09_01-07-42,4.311038330078126,-0.9093976216044276,-2.7539772213459015,-1.288448741954565,-0.472405344247818,-0.6027016043663025,-0.3930677771568298,0.0
112_Corbin_Ave-2026-04-09_01-07-42,4.321087402343751,-0.6332081061180681,-2.6290152091592547,-1.4179840534061192,-0.3445248901844024,-0.6165444254875183,-0.2662816047668457,0.0
112_Corbin_Ave-2026-04-09_01-07-42,4.331136230468751,-0.60975906066522,-2.541087334859371,-1.4847317770332098,-0.2250715494155883,-0.6498706936836243,-0.1413184106349945,0.0
112_Corbin_Ave-2026-04-09_01-07-42,4.341185546875,-0.8657621126912534,-2.3819383909106255,-1.5788094061344862,-0.1270448416471481,-0.7030279636383057,-0.0420951582491397,0.0
112_Corbin_Ave-2026-04-09_01-07-42,4.351234130859376,-1.2734851277090609,-2.1230822875410316,-1.8203885037496683,-0.0241135172545909,-0.7262794375419617,0.0244091097265481,0.0
112_Corbin_Ave-2026-04-09_01-07-42,4.361283203125001,-1.6380623900920153,-1.9096867896199223,-1.9705457474693655,0.1001407876610755,-0.7301228642463684,0.0335160568356514,0.0
112_Corbin_Ave-2026-04-09_01-07-42,4.371332519531251,-1.743778726799786,-1.6342331871926783,-1.9768311113491652,0.2430261522531509,-0.7467013597488403,0.0060015330091118,0.0
112_Corbin_Ave-2026-04-09_01-07-42,4.381381347656251,-1.631564114113897,-1.363410751697421,-1.8589847763866183,0.3830735385417938,-0.7829453945159912,-0.0232634115964174,0.0
112_Corbin_Ave-2026-04-09_01-07-42,4.391430419921876,-1.6378182060725983,-1.3541618618369102,-1.7006383809924124,0.4950279891490936,-0.8147561550140381,-0.0441771671175956,0.0
112_Corbin_Ave-2026-04-09_01-07-42,4.401479248046876,-1.706250229524821,-1.4482470897227524,-1.4539108145728707,0.555423378944397,-0.8358683586120605,-0.0628030449151992,0.0
112_Corbin_Ave-2026-04-09_01-07-42,4.411528320312501,-1.6914266082718967,-1.4336837268412113,-1.5175689016215503,0.5578972101211548,-0.8676378726959229,-0.0615558661520481,0.0
112_Corbin_Ave-2026-04-09_01-07-42,4.421577148437501,-1.788605272128433,-1.429592658135295,-1.094155419388413,0.5096300840377808,-0.9040584564208984,-0.0189418252557516,0.0
112_Corbin_Ave-2026-04-09_01-07-42,4.431626464843751,-1.765142417345941,-1.4188333637118338,-1.1508324153780936,0.4291796088218689,-0.9592835307121276,0.0606666654348373,0.0
112_Corbin_Ave-2026-04-09_01-07-42,4.441675292968751,-1.9227417937651272,-1.2911720294386149,-1.1349822275564074,0.3267610967159271,-1.0558513402938845,0.1838783472776413,0.0
112_Corbin_Ave-2026-04-09_01-07-42,4.451724121093751,-2.238258964902907,-0.9685586164295672,-1.202065174487233,0.2243437469005584,-1.2255080938339231,0.3276597857475281,0.0
112_Corbin_Ave-2026-04-09_01-07-42,4.461773437500001,-2.8041791761025783,-0.4174082504689693,-1.4209940488770605,0.1441383957862854,-1.3926310539245603,0.4630029499530792,0.0
112_Corbin_Ave-2026-04-09_01-07-42,4.471822265625001,-3.636134734651446,0.425665206682682,-1.958309658491611,0.1053205281496048,-1.5186823606491089,0.5664711594581604,0.0
112_Corbin_Ave-2026-04-09_01-07-42,4.481871337890626,-4.7333472035229205,1.5139040955036878,-2.550495799195766,0.1137331873178482,-1.6286746263504028,0.5936524271965027,0.0
112_Corbin_Ave-2026-04-09_01-07-42,4.491920410156251,-5.931220187017321,2.7173241917312145,-3.0165134745329616,0.1474549323320388,-1.7705519199371338,0.5337052345275879,0.0
112_Corbin_Ave-2026-04-09_01-07-42,4.50196826171875,-7.029238711574673,3.932305546414852,-3.194159905941784,0.1506464630365371,-2.0091443061828613,0.4089688658714294,0.0
112_Corbin_Ave-2026-04-09_01-07-42,4.512017333984375,-7.894975835955142,5.208502709561586,-2.9989848321050405,0.0843052864074707,-2.3183228969573975,0.2338927537202835,0.0
112_Corbin_Ave-2026-04-09_01-07-42,4.5220664062500004,-8.569933198848366,6.428120491874218,-2.6741274395614862,-0.0662685111165046,-2.6601555347442627,-0.0188542865216732,0.0
112_Corbin_Ave-2026-04-09_01-07-42,4.5321154785156255,-9.197809077093003,7.474787014856934,-2.3343469109132884,-0.2945924699306488,-2.943206787109375,-0.3802544474601745,0.0
112_Corbin_Ave-2026-04-09_01-07-42,4.542164306640625,-9.796519651129842,8.17237998792827,-2.1765786076679823,-0.5740531086921692,-3.138475179672241,-0.8505295515060425,0.0
112_Corbin_Ave-2026-04-09_01-07-42,4.552213134765625,-10.011770421528816,8.71780320841372,-2.1155793645650145,-0.8786222338676453,-3.2582008838653564,-1.3873612880706787,0.0
112_Corbin_Ave-2026-04-09_01-07-42,4.5622624511718755,-9.598269699892402,9.242440245980024,-2.047583102181554,-1.1865861415863037,-3.4242351055145264,-1.9187088012695312,0.0
112_Corbin_Ave-2026-04-09_01-07-42,4.5723115234375005,-8.56479758952558,9.464416525241733,-1.767089167499542,-1.5230861902236938,-3.7403621673583984,-2.3685972690582275,0.0
112_Corbin_Ave-2026-04-09_01-07-42,4.582360107421875,-7.004612804362178,9.580523030799627,-1.27439625120461,-1.9376873970031736,-4.085812568664551,-2.7102861404418945,0.0
112_Corbin_Ave-2026-04-09_01-07-42,4.5924094238281254,-5.117599618843197,9.364405414438249,-1.0255249507546425,-2.4375250339508057,-4.34743595123291,-2.959994077682495,0.0
112_Corbin_Ave-2026-04-09_01-07-42,4.602458251953125,-3.108134942653775,8.47249866053462,-1.074556400427222,-3.0099146366119385,-4.507363319396973,-3.149613857269287,0.0
112_Corbin_Ave-2026-04-09_01-07-42,4.61250732421875,-0.8657097249168902,7.251400284275412,-1.2803569131746888,-3.561803817749023,-4.503173351287842,-3.2716004848480225,0.0
112_Corbin_Ave-2026-04-09_01-07-42,4.622556396484375,1.1131884750299157,6.172465230372548,-1.726501136523485,-3.987479686737061,-4.491532802581787,-3.3015613555908203,0.0
112_Corbin_Ave-2026-04-09_01-07-42,4.6326054687500005,2.6482480251565574,5.3152095186114305,-2.059108120280504,-4.162624835968018,-4.548468112945557,-3.2192821502685547,0.0
112_Corbin_Ave-2026-04-09_01-07-42,4.642654296875,3.970462843112647,4.746358076265454,-2.791063381680846,-4.040208339691162,-4.592336177825928,-3.029585123062134,0.0
112_Corbin_Ave-2026-04-09_01-07-42,4.652703369140625,4.861449267300963,4.302760907050967,-3.6975261919423934,-3.706384897232056,-4.4739789962768555,-2.77248477935791,0.0
112_Corbin_Ave-2026-04-09_01-07-42,4.6627524414062504,5.110234058511256,3.5370442458242177,-4.6406940542668105,-3.2300500869750977,-4.032742500305176,-2.535304069519043,0.0
112_Corbin_Ave-2026-04-09_01-07-42,4.67280126953125,4.97747744692564,2.365422140395641,-5.632893658524751,-2.682975053787231,-3.3084027767181396,-2.3788843154907227,0.0
112_Corbin_Ave-2026-04-09_01-07-42,4.6828505859375005,4.895226156957447,1.1969032616794109,-6.311987098309397,-2.1293962001800537,-2.466496229171753,-2.3035295009613037,0.0
112_Corbin_Ave-2026-04-09_01-07-42,4.692899169921875,5.125269130557776,0.1611672980338335,-6.633020548650622,-1.6224548816680908,-1.70989191532135,-2.256495237350464,0.0
112_Corbin_Ave-2026-04-09_01-07-42,4.7029482421875,5.807972577533126,-0.7413152104198932,-6.56000850393176,-1.2081477642059326,-1.1890010833740234,-2.1752405166625977,0.0
112_Corbin_Ave-2026-04-09_01-07-42,4.712997314453125,6.947148457387089,-1.6143407382428645,-6.1679217417240135,-0.9070755243301392,-0.9095811247825624,-2.0045371055603027,0.0
112_Corbin_Ave-2026-04-09_01-07-42,4.72304638671875,8.254487193250656,-2.463714172321558,-5.742995370709896,-0.7033013701438904,-0.8049638867378235,-1.751760959625244,0.0
112_Corbin_Ave-2026-04-09_01-07-42,4.73309521484375,9.36628523683548,-3.276692350938916,-5.227818819928169,-0.5770133137702942,-0.8245442509651184,-1.4308199882507324,0.0
112_Corbin_Ave-2026-04-09_01-07-42,4.743144287109375,10.133270310562848,-3.892073489269614,-4.775929038664699,-0.5025646686553955,-0.9006171822547913,-1.0786774158477783,0.0
112_Corbin_Ave-2026-04-09_01-07-42,4.753193359375,10.362660080951452,-4.24309349707365,-4.421676040288806,-0.4453678727149963,-1.0286520719528198,-0.7441768050193787,0.0
112_Corbin_Ave-2026-04-09_01-07-42,4.7632421875,10.13670145405531,-4.28546607337892,-4.045602839770913,-0.3957880735397339,-1.15379798412323,-0.451256513595581,0.0
112_Corbin_Ave-2026-04-09_01-07-42,4.7732915039062505,9.202811999946832,-3.9453748713463543,-3.5180899545073507,-0.3585896790027618,-1.2220008373260498,-0.2430460453033447,0.0
112_Corbin_Ave-2026-04-09_01-07-42,4.783340087890625,8.590148303881287,-3.856929695174098,-3.405749523484707,-0.3132821321487427,-1.190606951713562,-0.1196151822805404,0.0
112_Corbin_Ave-2026-04-09_01-07-42,4.79338916015625,8.121566331014037,-3.593774433305859,-3.394561189994216,-0.2364527434110641,-1.0434802770614624,-0.0513559803366661,0.0
112_Corbin_Ave-2026-04-09_01-07-42,4.803438232421875,7.741090511623025,-3.1790374478727577,-3.376216555008292,-0.1037293151021003,-0.8321451544761658,0.0349837020039558,0.0
112_Corbin_Ave-2026-04-09_01-07-42,4.8134873046875,7.408187175267934,-2.5851211223751305,-3.366268576967716,0.0958433076739311,-0.6122645139694214,0.1658474504947662,0.0
112_Corbin_Ave-2026-04-09_01-07-42,4.823536376953125,6.897404475530982,-2.036257990568876,-3.3032080174207685,0.3442608714103699,-0.4014185667037964,0.3084205687046051,0.0
112_Corbin_Ave-2026-04-09_01-07-42,4.833585205078125,6.221153565695881,-1.5925240432322023,-3.042774289470911,0.6144338250160217,-0.2257303297519683,0.4173896312713623,0.0
112_Corbin_Ave-2026-04-09_01-07-42,4.84363427734375,5.523971511512994,-1.0986954009056091,-2.503634094777703,0.8639326095581055,-0.1038451790809631,0.4943781495094299,0.0
112_Corbin_Ave-2026-04-09_01-07-42,4.853683349609375,4.836751171635091,-0.6703074912607669,-1.716226995268464,1.0490009784698486,-0.0664175823330879,0.5422168374061584,0.0
112_Corbin_Ave-2026-04-09_01-07-42,4.863732421875,4.104613539405167,-0.3588017477214336,-1.0043751952201128,1.1479922533035278,-0.0677923038601875,0.5616281032562256,0.0
112_Corbin_Ave-2026-04-09_01-07-42,4.87378125,4.154663226209581,-0.2990975128650665,-1.1020277601987123,1.1731512546539309,-0.0730805695056915,0.5415995121002197,0.0
112_Corbin_Ave-2026-04-09_01-07-42,4.883830322265625,2.862126630419493,0.1372556765705347,0.1679308008193969,1.1248407363891602,-0.0456071309745311,0.5175013542175293,0.0
112_Corbin_Ave-2026-04-09_01-07-42,4.893879150390625,2.3745862745821475,0.2921405333340168,0.519476878324151,1.0175769329071045,0.0496470145881176,0.4909502565860748,0.0
112_Corbin_Ave-2026-04-09_01-07-42,4.90392822265625,1.789824877051264,0.2605097157955169,0.664488575848937,0.8687043190002441,0.2150985598564148,0.4448921978473663,0.0
112_Corbin_Ave-2026-04-09_01-07-42,4.913977294921875,1.3250327979862688,0.2967816371381283,0.5687003434374928,0.7155579924583435,0.4401775300502777,0.3800880312919616,0.0
112_Corbin_Ave-2026-04-09_01-07-42,4.9240263671875,1.0190697102006523,0.3761147015720605,0.471066775420308,0.5811330676078796,0.6320364475250244,0.3229046165943146,0.0
112_Corbin_Ave-2026-04-09_01-07-42,4.9340751953125,0.7878636111050844,0.2981768908888101,0.3502706507414579,0.4748375117778778,0.7372526526451111,0.2684007287025451,0.0
112_Corbin_Ave-2026-04-09_01-07-42,4.944124267578125,0.6693078857641667,0.0182400055676698,0.1172206042796373,0.3870445489883423,0.7954819202423096,0.1827803701162338,0.0
112_Corbin_Ave-2026-04-09_01-07-42,4.95417333984375,0.8096916312273591,-0.3881558524996042,-0.279564252616465,0.3043944537639618,0.8881914019584656,0.0545617006719112,0.0
112_Corbin_Ave-2026-04-09_01-07-42,4.96422216796875,1.0533372329182922,-1.175703237262368,-0.6974582407757639,0.2310725748538971,1.0405417680740356,-0.1338449716567993,0.0
112_Corbin_Ave-2026-04-09_01-07-42,4.974271484375,1.5878899536907671,-2.409761632859707,-1.3215233285605907,0.1610489338636398,1.2804834842681885,-0.3860754370689392,0.0
112_Corbin_Ave-2026-04-09_01-07-42,4.984320068359375,2.6069287572965023,-3.70362246299088,-2.0368881051659584,0.1038700640201568,1.6098402738571167,-0.6381102800369263,0.0
112_Corbin_Ave-2026-04-09_01-07-42,4.994369140625,2.4622110742822287,-3.699862233674526,-2.0460086924716827,0.0876557901501655,1.925172448158264,-0.8036487698554993,0.0
112_Corbin_Ave-2026-04-09_01-07-42,5.00441845703125,5.345307719755173,-6.054689914819598,-3.498089369007945,0.1396659910678863,2.13116192817688,-0.8231215476989746,0.0
112_Corbin_Ave-2026-04-09_01-07-42,5.01446728515625,6.980465620577335,-6.60626172106266,-4.039051810692251,0.2682121396064758,2.1405029296875,-0.6501076221466064,0.0
112_Corbin_Ave-2026-04-09_01-07-42,5.024516357421875,8.206472227144241,-7.117810728996992,-4.572136943130195,0.4401029348373413,1.9808106422424316,-0.3408224880695343,0.0
112_Corbin_Ave-2026-04-09_01-07-42,5.034565185546875,8.929320637503265,-7.636890716958045,-5.238806662410497,0.6354225277900696,1.771648406982422,0.0110693927854299,0.0
112_Corbin_Ave-2026-04-09_01-07-42,5.0446142578125,9.227961054250596,-7.821118572583794,-5.762534768438339,0.8507609367370605,1.5380005836486816,0.3514309525489807,0.0
112_Corbin_Ave-2026-04-09_01-07-42,5.0546630859375,9.095828127521276,-7.635444025281071,-6.4192041949689385,1.112791657447815,1.3797709941864014,0.6725634336471558,0.0
112_Corbin_Ave-2026-04-09_01-07-42,5.06471240234375,8.533934833750129,-7.398240950793028,-6.950997534030676,1.415613889694214,1.3541324138641355,0.9447821378707886,0.0
112_Corbin_Ave-2026-04-09_01-07-42,5.07476123046875,8.024073340511322,-6.652641779443622,-7.1255743487358085,1.7484524250030518,1.4120862483978271,1.2002959251403809,0.0
112_Corbin_Ave-2026-04-09_01-07-42,5.08481005859375,7.537136211264133,-5.402916443637013,-7.003333285945653,2.092698574066162,1.494670033454895,1.4723386764526367,0.0
112_Corbin_Ave-2026-04-09_01-07-42,5.094859375,6.742679193243384,-4.281846129316091,-6.743333857759833,2.416806697845459,1.587546944618225,1.7423934936523438,0.0
112_Corbin_Ave-2026-04-09_01-07-42,5.104908203125,5.697136121332645,-3.4105747516840696,-6.678886227768659,2.7005794048309326,1.7853044271469116,1.9432682991027832,0.0
112_Corbin_Ave-2026-04-09_01-07-42,5.11495751953125,4.643149338464439,-2.8186943159282207,-6.443814904612302,2.915534734725952,2.039444923400879,2.040881395339966,0.0
112_Corbin_Ave-2026-04-09_01-07-42,5.12500634765625,3.994407782323658,-2.0324001460969447,-6.186089851099252,3.047255516052246,2.285226821899414,2.0724563598632812,0.0
112_Corbin_Ave-2026-04-09_01-07-42,5.13505517578125,3.6247953022524713,-0.9664362174481153,-5.857357078427076,3.119124412536621,2.452883005142212,2.0853052139282227,0.0
112_Corbin_Ave-2026-04-09_01-07-42,5.145104248046875,3.21937354991436,0.2344371169060468,-5.521324211874604,3.179150342941284,2.492194652557373,2.0993311405181885,0.0
112_Corbin_Ave-2026-04-09_01-07-42,5.1551533203125,2.586803668634593,1.4448422497153282,-5.340782935807108,3.2784245014190674,2.4935190677642822,2.077836275100708,0.0
112_Corbin_Ave-2026-04-09_01-07-42,5.1652021484375,1.807724983140081,2.6385177815198895,-5.289421581882238,3.451763391494751,2.579625129699707,1.993263602256775,0.0
112_Corbin_Ave-2026-04-09_01-07-42,5.17525146484375,1.049143580620736,3.787489663723111,-5.058369431239366,3.694002628326416,2.7824549674987793,1.8663331270217896,0.0
112_Corbin_Ave-2026-04-09_01-07-42,5.18530029296875,0.5245499438047408,4.9537593022078275,-4.489595145782828,3.9440085887908936,3.0578484535217285,1.7399128675460815,0.0
112_Corbin_Ave-2026-04-09_01-07-42,5.19534912109375,0.6706758861817419,4.968023389881849,-4.860744333902001,4.102339267730713,3.283653497695923,1.6924434900283811,0.0
112_Corbin_Ave-2026-04-09_01-07-42,5.2053974609375,0.4875204090278595,6.176468036273121,-3.7541631481826303,4.086365699768066,3.4108963012695312,1.7260600328445437,0.0
112_Corbin_Ave-2026-04-09_01-07-42,5.2154462890625,0.4079339543547481,7.237296355599165,-2.4914883144319058,3.88976788520813,3.42854642868042,1.7331409454345703,0.0
112_Corbin_Ave-2026-04-09_01-07-42,5.225495361328125,0.2253128763385117,8.068721460533142,-1.3091010693609717,3.510192394256592,3.4030869007110596,1.667494773864746,0.0
112_Corbin_Ave-2026-04-09_01-07-42,5.235544189453125,-0.1418358439676463,8.550109723481535,-0.4824224283017218,2.982485771179199,3.3944315910339355,1.543185114860535,0.0
112_Corbin_Ave-2026-04-09_01-07-42,5.24559326171875,-0.6020207214981317,8.93416223231554,0.051621466165781,2.354891061782837,3.3753201961517334,1.352766990661621,0.0
112_Corbin_Ave-2026-04-09_01-07-42,5.255642333984375,-1.1206189172916114,9.227146815258264,0.3884416837036609,1.6986258029937744,3.301670551300049,1.0854227542877195,0.0
112_Corbin_Ave-2026-04-09_01-07-42,5.26569140625,-1.4627476165011524,9.471755782088636,0.6119697224520146,1.0778549909591677,3.1736414432525635,0.7603597640991211,0.0
112_Corbin_Ave-2026-04-09_01-07-42,5.275739990234375,-1.664798275195807,9.654732176348569,0.5121547187425196,0.5532740354537964,2.9959676265716553,0.4520222544670105,0.0
112_Corbin_Ave-2026-04-09_01-07-42,5.285789306640625,-1.6723402150079607,9.907512759196758,0.1993231334269046,0.1491268575191497,2.7773633003234863,0.2291207313537597,0.0
112_Corbin_Ave-2026-04-09_01-07-42,5.29583837890625,-1.5304757294677198,10.201417379593847,-0.1068599537849426,-0.1501248180866241,2.4938642978668213,0.0859958603978157,0.0
112_Corbin_Ave-2026-04-09_01-07-42,5.30588720703125,-1.4445919282160695,10.436678087842465,-0.2339199611641466,-0.3952978253364563,2.1837198734283447,0.0168245136737823,0.0
112_Corbin_Ave-2026-04-09_01-07-42,5.3159365234375,-1.43022657212466,10.656375316256284,-0.2825555433869361,-0.5877699255943298,1.93284273147583,-0.0382463112473487,0.0
112_Corbin_Ave-2026-04-09_01-07-42,5.325985107421875,-1.6410205092452466,10.752340951061248,-0.5737351957995445,-0.69004225730896,1.796763300895691,-0.1475126147270202,0.0
112_Corbin_Ave-2026-04-09_01-07-42,5.3360341796875,-2.0689665203414855,10.703853691267966,-0.988979546232894,-0.680429220199585,1.707586407661438,-0.3381868004798889,0.0
112_Corbin_Ave-2026-04-09_01-07-42,5.346083251953125,-2.449355684362352,10.72361754540205,-1.2084359516281633,-0.5571525692939758,1.6583832502365112,-0.5750091671943665,0.0
112_Corbin_Ave-2026-04-09_01-07-42,5.35613232421875,-2.5970667039737103,10.87272674137354,-1.425791512286663,-0.3350599110126495,1.6750428676605225,-0.8168335556983948,0.0
112_Corbin_Ave-2026-04-09_01-07-42,5.366181396484375,-2.781680051785707,10.8262093203485,-1.6137807662725447,-0.0704365149140358,1.6893459558486938,-1.0470998287200928,0.0
112_Corbin_Ave-2026-04-09_01-07-42,5.376230224609375,-2.996394815611839,10.433057559257746,-1.278968965947628,0.160778135061264,1.603095293045044,-1.240375280380249,0.0
112_Corbin_Ave-2026-04-09_01-07-42,5.386279296875,-3.1064158637762067,10.052453145051002,-0.4803308993825688,0.2880255579948425,1.4334831237792969,-1.3686046600341797,0.0
112_Corbin_Ave-2026-04-09_01-07-42,5.396328369140625,-3.2745874876141547,9.744999307250977,0.4605822062849998,0.2811866998672485,1.1912102699279783,-1.4395960569381714,0.0
112_Corbin_Ave-2026-04-09_01-07-42,5.40637744140625,-3.582012391580641,9.30766645912826,1.5420985088527202,0.1266509145498275,0.8994971513748169,-1.4583274126052856,0.0
112_Corbin_Ave-2026-04-09_01-07-42,5.416426025390625,-4.049230967140198,8.828038191589712,2.634545370757579,-0.1674609631299972,0.6318660974502563,-1.4335893392562866,0.0
112_Corbin_Ave-2026-04-09_01-07-42,5.426475341796875,-4.634144486492872,8.454288465583325,3.445279569840431,-0.546536386013031,0.3918092548847198,-1.3844797611236572,0.0
112_Corbin_Ave-2026-04-09_01-07-42,5.436524169921875,-5.214139838665724,8.149804583504796,3.928836993521452,-0.952502191066742,0.1904243528842926,-1.2969123125076294,0.0
112_Corbin_Ave-2026-04-09_01-07-42,5.4465732421875,-5.626650964742899,8.014713391491771,3.979435546380281,-1.3761975765228271,0.0776083320379257,-1.198171854019165,0.0
112_Corbin_Ave-2026-04-09_01-07-42,5.45662255859375,-6.219369020366669,7.618851202398538,3.795150992131233,-1.8129031658172607,0.123909942805767,-1.121212124824524,0.0
112_Corbin_Ave-2026-04-09_01-07-42,5.46667138671875,-7.103320431351661,6.817501502254605,3.387959015250206,-2.247426986694336,0.2083912640810012,-1.0718512535095217,0.0
112_Corbin_Ave-2026-04-09_01-07-42,5.47672021484375,-7.923150960081816,5.9628632795155045,3.2520547532886264,-2.6613121032714844,0.194916546344757,-1.0280901193618774,0.0
112_Corbin_Ave-2026-04-09_01-07-42,5.486769287109375,-8.385214344835282,5.396746230569481,2.9765970592081543,-3.051020860671997,0.0383753962814807,-0.9863842129707336,0.0
112_Corbin_Ave-2026-04-09_01-07-42,5.496818359375,-8.589961256876588,4.869848846855759,2.453562780663371,-3.43521785736084,-0.1528757065534591,-0.9784332513809204,0.0
112_Corbin_Ave-2026-04-09_01-07-42,5.5068671875,-8.820487337818742,4.299577600839734,1.6516628992907705,-3.816211462020874,-0.3929846882820129,-1.0292270183563232,0.0
112_Corbin_Ave-2026-04-09_01-07-42,5.51691650390625,-9.08724383904934,3.6567069825589655,0.7739256866455078,-4.155263900756836,-0.6210362911224365,-1.1402407884597778,0.0
112_Corbin_Ave-2026-04-09_01-07-42,5.526965087890625,-9.261941649785635,3.1913878108799456,-0.5674626183360815,-4.383508682250977,-0.8461921811103821,-1.3171892166137695,0.0
112_Corbin_Ave-2026-04-09_01-07-42,5.53701416015625,-9.390699547123909,2.64931565438807,-1.979478410987556,-4.432646751403809,-1.1017199754714966,-1.5407238006591797,0.0
112_Corbin_Ave-2026-04-09_01-07-42,5.5470634765625,-9.536490412327646,2.0417630177259443,-3.4195883714839814,-4.283606052398682,-1.3223696947097778,-1.7814011573791504,0.0
112_Corbin_Ave-2026-04-09_01-07-42,5.5571123046875,-8.760953198832272,1.1674001038193702,-6.759253311425447,-3.9621074199676514,-1.4683644771575928,-1.9881024360656736,0.0
112_Corbin_Ave-2026-04-09_01-07-42,5.5671611328125,-8.517675772866607,0.2802490200102329,-8.237455978950857,-3.508819580078125,-1.4497257471084597,-2.151237726211548,0.0
112_Corbin_Ave-2026-04-09_01-07-42,5.577210205078125,-8.088416341084242,-0.639096360439062,-9.420268755957483,-2.9782588481903076,-1.2255696058273315,-2.2866861820220947,0.0
112_Corbin_Ave-2026-04-09_01-07-42,5.58725927734375,-7.29452280216515,-0.9323100759625434,-9.833339269483089,-2.405827283859253,-1.0037740468978882,-2.3292574882507324,0.0
112_Corbin_Ave-2026-04-09_01-07-42,5.597307373046875,-6.510638031563162,-1.0044254641026258,-10.01635190410018,-1.8304448127746584,-0.8237770795822144,-2.2697181701660156,0.0
112_Corbin_Ave-2026-04-09_01-07-42,5.607356201171875,-6.219699859756231,-1.570120488244295,-9.930302098631858,-1.3091498613357544,-0.7184024453163147,-2.209247589111328,0.0
112_Corbin_Ave-2026-04-09_01-07-42,5.617405029296875,-6.110034785422682,-2.260831300586462,-9.524384963992237,-0.914636731147766,-0.729949414730072,-2.22047758102417,0.0
112_Corbin_Ave-2026-04-09_01-07-42,5.627454345703125,-5.649135183751583,-2.624430219456553,-9.134479052954912,-0.6734917759895325,-0.8240141272544861,-2.2908878326416016,0.0
112_Corbin_Ave-2026-04-09_01-07-42,5.637503173828125,-5.025808639374375,-3.054243777990341,-9.109704092660548,-0.5699323415756226,-0.8782745599746704,-2.415348529815674,0.0
112_Corbin_Ave-2026-04-09_01-07-42,5.64755224609375,-4.098305379171669,-3.57793915079236,-9.249940830868482,-0.5733177661895752,-0.8854081034660339,-2.587758302688598,0.0
112_Corbin_Ave-2026-04-09_01-07-42,5.6576015625,-2.588745742613077,-3.8973400314956903,-9.681891985952854,-0.6152805685997009,-0.8571584820747375,-2.7403645515441895,0.0
112_Corbin_Ave-2026-04-09_01-07-42,5.667650146484375,-0.6935917746059597,-4.3638726706177,-10.328956548792124,-0.6411983966827393,-0.8056902289390564,-2.8467321395874023,0.0
112_Corbin_Ave-2026-04-09_01-07-42,5.67769921875,1.398180451783538,-4.747067685839533,-10.61457147974968,-0.6258652806282043,-0.8893031477928162,-2.8688981533050537,0.0
112_Corbin_Ave-2026-04-09_01-07-42,5.687748291015625,3.2533047533497212,-4.898847562325001,-10.294337655353546,-0.5797268152236938,-1.3129438161849976,-2.7852723598480225,0.0
112_Corbin_Ave-2026-04-09_01-07-42,5.69779736328125,4.594027580159902,-4.920923785054684,-9.989299062001704,-0.4736129343509674,-2.047856569290161,-2.633805274963379,0.0
112_Corbin_Ave-2026-04-09_01-07-42,5.70784619140625,5.661332986545562,-4.612205626407265,-9.86405238765478,-0.3016624748706817,-2.8856663703918457,-2.413694143295288,0.0
112_Corbin_Ave-2026-04-09_01-07-42,5.717895263671875,6.046717620766162,-4.575635598900914,-10.1226916334033,-0.1064118966460228,-3.5096843242645264,-2.135129451751709,0.0
112_Corbin_Ave-2026-04-09_01-07-42,5.7279443359375,5.709183702000975,-5.107077640306949,-10.06334863307476,0.1125260442495346,-3.8414292335510254,-1.904542565345764,0.0
112_Corbin_Ave-2026-04-09_01-07-42,5.737993408203125,5.560879392671585,-5.170545027089118,-9.787547240123152,0.3690386414527893,-3.911199569702149,-1.7381879091262815,0.0
112_Corbin_Ave-2026-04-09_01-07-42,5.74804248046875,5.809271969693899,-4.69496515815854,-9.054539839321375,0.646795392036438,-3.881001710891723,-1.569319248199463,0.0
112_Corbin_Ave-2026-04-09_01-07-42,5.758091064453125,6.099633218395709,-4.134131602573395,-8.251914127892256,0.933010458946228,-3.818593263626098,-1.360450029373169,0.0
112_Corbin_Ave-2026-04-09_01-07-42,5.768140380859375,6.283817819401621,-3.875411108282208,-7.445448107647896,1.20939302444458,-3.711494207382202,-1.134024143218994,0.0
112_Corbin_Ave-2026-04-09_01-07-42,5.778189208984375,6.3684747092068195,-3.843874398767948,-6.601286270737647,1.437760591506958,-3.547020196914673,-0.9018576741218568,0.0
112_Corbin_Ave-2026-04-09_01-07-42,5.78823828125,6.4970280238837,-3.773980193808675,-6.6563821350157255,1.5876035690307615,-3.2504234313964844,-0.66730135679245,0.0
112_Corbin_Ave-2026-04-09_01-07-42,5.798287353515625,6.623169601243734,-3.4183383714228865,-5.557597886782884,1.6621840000152588,-2.8647892475128174,-0.4426086843013763,0.0
112_Corbin_Ave-2026-04-09_01-07-42,5.808336181640625,6.781835730111599,-3.3370302075237035,-5.225811571758985,1.6718124151229858,-2.474292755126953,-0.254488855600357,0.0
112_Corbin_Ave-2026-04-09_01-07-42,5.81838525390625,7.208413375464081,-3.285231631225347,-5.1176592400759455,1.6489559412002563,-2.1082324981689453,-0.1065776348114013,0.0
112_Corbin_Ave-2026-04-09_01-07-42,5.828434326171875,7.920932114988565,-3.19887553628683,-5.21681344178915,1.627456784248352,-1.8231154680252075,0.0204673949629068,0.0
112_Corbin_Ave-2026-04-09_01-07-42,5.8384833984375,8.653677065461874,-3.144431413915753,-5.519879273763299,1.6407922506332395,-1.6339150667190552,0.1605857014656067,0.0
112_Corbin_Ave-2026-04-09_01-07-42,5.8485322265625,9.261615486571191,-3.1278900289595124,-5.635557909297943,1.6868486404418943,-1.5728003978729248,0.3056246340274811,0.0
112_Corbin_Ave-2026-04-09_01-07-42,5.858581298828125,9.790358205890657,-2.922228340160846,-5.679358472579717,1.7747042179107666,-1.5919415950775146,0.4507977962493896,0.0
112_Corbin_Ave-2026-04-09_01-07-42,5.868629394531251,10.045085831153392,-2.582979434171319,-5.6921285223037,1.9235568046569824,-1.6386715173721311,0.6035417914390564,0.0
112_Corbin_Ave-2026-04-09_01-07-42,5.878678466796876,9.994505982995031,-2.1996412110865116,-5.634437965357304,2.1279685497283936,-1.6242841482162476,0.7552887201309204,0.0
112_Corbin_Ave-2026-04-09_01-07-42,5.888727539062501,9.807722013145684,-1.7825789975762367,-5.36778492450118,2.3533995151519775,-1.5322409868240356,0.8891362547874451,0.0
112_Corbin_Ave-2026-04-09_01-07-42,5.898776123046876,9.647883917889,-1.31831664147377,-5.118611426234245,2.5970892906188965,-1.3418526649475098,0.984210729598999,0.0
112_Corbin_Ave-2026-04-09_01-07-42,5.908825439453126,9.56630570487678,-0.7561644045054912,-4.7767014843419195,2.8485310077667236,-1.0724647045135498,1.050849199295044,0.0
112_Corbin_Ave-2026-04-09_01-07-42,5.918874511718751,9.4373952473253,-0.0260135621786117,-4.331604724219441,3.1119039058685303,-0.7843741774559021,1.0945326089859009,0.0
112_Corbin_Ave-2026-04-09_01-07-42,5.928923339843751,9.247046862992644,0.8037894945114851,-3.721659347201883,3.3770198822021484,-0.5037558078765869,1.1302706003189087,0.0
112_Corbin_Ave-2026-04-09_01-07-42,5.93897265625,8.925295619770884,1.3782827421367168,-2.9869924887552854,3.595642566680908,-0.2257725745439529,1.1566598415374756,0.0
112_Corbin_Ave-2026-04-09_01-07-42,5.949021240234376,8.6051214166075,1.9067437219053505,-2.202522027219832,3.726328611373902,0.0611042119562625,1.1816937923431396,0.0
112_Corbin_Ave-2026-04-09_01-07-42,5.959070312500001,8.269932599663735,2.428888358134031,-1.409709269274771,3.7468764781951904,0.3272050023078918,1.2044377326965332,0.0
112_Corbin_Ave-2026-04-09_01-07-42,5.969119384765626,8.019355664339662,2.958549945864082,-0.54854485963732,3.666614055633545,0.4990675747394562,1.221572756767273,0.0
112_Corbin_Ave-2026-04-09_01-07-42,5.979168457031251,7.834527504733204,3.552161150935292,0.217304780319333,3.4932117462158203,0.5743824243545532,1.242202877998352,0.0
112_Corbin_Ave-2026-04-09_01-07-42,5.989217285156251,7.947743549546599,3.5935260115027425,-0.1082442477501928,3.2427051067352295,0.5446908473968506,1.2413530349731443,0.0
112_Corbin_Ave-2026-04-09_01-07-42,5.999266357421876,7.6615855977535245,4.16181689735651,0.6517210103429854,2.9435875415802,0.4521588683128357,1.2049232721328735,0.0
112_Corbin_Ave-2026-04-09_01-07-42,6.009315429687501,7.2436629680216305,4.8167017785578965,1.234357670804858,2.6169018745422363,0.379773885011673,1.16044282913208,0.0
112_Corbin_Ave-2026-04-09_01-07-42,6.019364257812501,6.607090573102235,5.473022245520353,1.5199883838534354,2.2958662509918213,0.4264010488986969,1.0992426872253418,0.0
112_Corbin_Ave-2026-04-09_01-07-42,6.029413574218751,5.6674389022052285,5.950396012130379,1.41667706246078,1.991504907608032,0.6470175981521606,0.982684850692749,0.0
112_Corbin_Ave-2026-04-09_01-07-42,6.039462402343751,4.64230762694329,6.099962304219603,1.1939233690857889,1.700032353401184,0.9969676733016968,0.8119374513626099,0.0
112_Corbin_Ave-2026-04-09_01-07-42,6.049511230468751,3.770303551122546,6.229720903033018,1.0534159972429276,1.4175461530685425,1.4499436616897583,0.6013927459716797,0.0
112_Corbin_Ave-2026-04-09_01-07-42,6.059560302734376,3.223506411935389,6.431895334237813,0.9270680836558342,1.1690400838851929,1.892703890800476,0.3967012465000152,0.0
112_Corbin_Ave-2026-04-09_01-07-42,6.069609375000001,2.8665660741716623,6.658281831157207,0.8843827881395816,0.9603827595710754,2.280627727508545,0.1894308924674987,0.0
112_Corbin_Ave-2026-04-09_01-07-42,6.079658447265626,2.554446290387213,6.7223723182737825,0.7683037551105022,0.813483476638794,2.6115410327911377,-0.0133255766704678,0.0
112_Corbin_Ave-2026-04-09_01-07-42,6.089707519531251,2.4504756283029914,6.714689362555742,0.6187257725834846,0.7306908369064331,2.8414103984832764,-0.1712177395820617,0.0
112_Corbin_Ave-2026-04-09_01-07-42,6.09975537109375,2.6224416759878397,6.7080322427541015,0.5414975349416956,0.6839008927345276,2.9771692752838135,-0.2859534621238708,0.0
112_Corbin_Ave-2026-04-09_01-07-42,6.1098044433593754,2.8480361457467076,6.501215538701414,0.6869312938034534,0.6357714533805847,3.0101559162139893,-0.3731773197650909,0.0
112_Corbin_Ave-2026-04-09_01-07-42,6.1198535156250005,2.9609347951740026,6.2498576821327205,1.061174940806627,0.578033447265625,2.999657392501831,-0.4193322956562042,0.0
112_Corbin_Ave-2026-04-09_01-07-42,6.1299025878906255,3.015885698023438,6.063431439679861,1.2644506112515923,0.5097657442092896,3.000067710876465,-0.4164611399173736,0.0
112_Corbin_Ave-2026-04-09_01-07-42,6.139951416015625,2.9131287956431504,5.747444166812301,1.4219734153032302,0.408393919467926,3.061690092086792,-0.3955413401126861,0.0
112_Corbin_Ave-2026-04-09_01-07-42,6.150000244140625,2.6269325576663016,5.370366757687926,1.4967524696946144,0.2733969390392303,3.180701494216919,-0.3833144903182983,0.0
112_Corbin_Ave-2026-04-09_01-07-42,6.1600495605468755,2.4575968584850427,5.072643455785513,1.489976691949367,0.130555048584938,3.3248164653778076,-0.3732474446296692,0.0
112_Corbin_Ave-2026-04-09_01-07-42,6.170098388671875,2.4197364989072083,4.941642163434625,1.4330419218063353,0.0080978460609912,3.4543612003326416,-0.3643642067909241,0.0
112_Corbin_Ave-2026-04-09_01-07-42,6.1801474609375004,2.362743861097097,4.778869183769822,1.339966163223982,-0.0975406840443611,3.5558290481567383,-0.3425512611865997,0.0
112_Corbin_Ave-2026-04-09_01-07-42,6.1901962890625,2.2998574890732764,4.599804994517564,1.2603273938417434,-0.1989328265190124,3.6037368774414062,-0.3139228224754333,0.0
112_Corbin_Ave-2026-04-09_01-07-42,6.200245361328125,2.2321426739796997,4.467153596872091,1.2223989374637605,-0.2988326251506805,3.639371156692505,-0.2865025699138641,0.0
112_Corbin_Ave-2026-04-09_01-07-42,6.21029443359375,2.1744582545131443,4.308233785504102,1.0926245565593242,-0.3941639363765716,3.6374897956848145,-0.2610030770301819,0.0
112_Corbin_Ave-2026-04-09_01-07-42,6.2203435058593755,2.1335629111535845,4.14406146043539,0.9935106868565082,-0.4647883772850036,3.573122262954712,-0.22715425491333,0.0
112_Corbin_Ave-2026-04-09_01-07-42,6.2303925781250005,2.035614431968331,4.007340036872029,0.9259609991967678,-0.5184942483901978,3.450753688812256,-0.1853700578212738,0.0
112_Corbin_Ave-2026-04-09_01-07-42,6.240441162109375,1.8906632324591277,3.7997248759180304,0.9338017758250236,-0.5824375748634338,3.2827818393707275,-0.1433339864015579,0.0
112_Corbin_Ave-2026-04-09_01-07-42,6.2504904785156254,1.7103224473997949,3.5268577828526495,1.0959084005355837,-0.6648285984992981,3.092494010925293,-0.113433614373207,0.0
112_Corbin_Ave-2026-04-09_01-07-42,6.260539306640625,1.4042355140388012,3.106773591172695,1.2471470097512003,-0.7523195743560791,2.929987907409668,-0.0826903581619262,0.0
112_Corbin_Ave-2026-04-09_01-07-42,6.27058837890625,1.0799483225986362,2.753881359755993,1.2896411666095255,-0.826069712638855,2.8157219886779785,-0.0265764892101287,0.0
112_Corbin_Ave-2026-04-09_01-07-42,6.2806376953125005,0.8019725082173943,2.5909867995381353,1.2874836963146925,-0.8781341910362244,2.782771110534668,0.047114610671997,0.0
112_Corbin_Ave-2026-04-09_01-07-42,6.290686279296875,0.4778290360968559,2.4961376015424728,1.2502391305476426,-0.908500909805298,2.7992725372314453,0.127976968884468,0.0
112_Corbin_Ave-2026-04-09_01-07-42,6.3007353515625,0.1213348346654325,2.435218730199337,1.1861223399460314,-0.9258314371109008,2.871643543243408,0.2010430693626403,0.0
112_Corbin_Ave-2026-04-09_01-07-42,6.310784423828125,-0.2025915606383234,2.4501228693425654,1.018145946419239,-0.932022988796234,2.882847309112549,0.287409633398056,0.0
112_Corbin_Ave-2026-04-09_01-07-42,6.3208334960937504,-0.4311369891572743,2.5046499938219786,1.0524913566786795,-0.9614044427871704,2.8740456104278564,0.3657615482807159,0.0
112_Corbin_Ave-2026-04-09_01-07-42,6.33088134765625,-0.7163302606366574,2.56488614359796,0.975338558893278,-1.024454951286316,2.801783561706543,0.4185360968112945,0.0
112_Corbin_Ave-2026-04-09_01-07-42,6.340930419921875,-1.542133434035629,1.9873586428433656,0.5554496705897152,-1.1140135526657104,2.639805316925049,0.425187736749649,0.0
112_Corbin_Ave-2026-04-09_01-07-42,6.350979248046875,-1.6877473352372645,1.852542176118493,0.0570094428144395,-1.2104870080947876,2.484534978866577,0.4173239469528198,0.0
112_Corbin_Ave-2026-04-09_01-07-42,6.361028564453125,-1.861691697257757,1.8673235656648872,-0.500506951046735,-1.3060290813446045,2.371992588043213,0.3962554633617401,0.0
112_Corbin_Ave-2026-04-09_01-07-42,6.371077392578125,-2.2288597067862748,1.7048703194737431,-0.951592137929052,-1.3907049894332886,2.2593331336975098,0.3437770903110504,0.0
112_Corbin_Ave-2026-04-09_01-07-42,6.381126220703125,-2.5084593229770658,1.536574776995182,-1.6600719773262738,-1.465147852897644,2.1518962383270264,0.2736110389232635,0.0
112_Corbin_Ave-2026-04-09_01-07-42,6.39117529296875,-2.6067136532410977,1.1566612676620482,-2.6288036122351883,-1.524022936820984,2.1356074810028076,0.2098400294780731,0.0
112_Corbin_Ave-2026-04-09_01-07-42,6.401224365234375,-2.375049800440669,0.3410205918371677,-3.1729601737856865,-1.5643396377563477,2.1406116485595703,0.180112674832344,0.0
112_Corbin_Ave-2026-04-09_01-07-42,6.4112734375,-2.111813290029764,-0.4644306984066963,-3.237154413537681,-1.5995221138000488,2.0023550987243652,0.2215866148471832,0.0
112_Corbin_Ave-2026-04-09_01-07-42,6.421322509765625,-1.965773710761964,-0.8843091383814811,-3.7467736224532127,-1.5941802263259888,1.8000972270965576,0.3486185371875763,0.0
112_Corbin_Ave-2026-04-09_01-07-42,6.431371337890625,-1.8897440717875955,-1.0540104560047387,-4.30770566997677,-1.532881498336792,1.650947093963623,0.5520268082618713,0.0
112_Corbin_Ave-2026-04-09_01-07-42,6.44142041015625,-2.0984018736623224,-1.137284367018938,-4.639590476939082,-1.4502997398376465,1.564274549484253,0.7799683213233948,0.0
112_Corbin_Ave-2026-04-09_01-07-42,6.451469482421875,-2.7199334974467755,-1.3388590787649153,-4.918009358912706,-1.3596231937408447,1.5260677337646484,0.9355440735816956,0.0
112_Corbin_Ave-2026-04-09_01-07-42,6.461518310546875,-3.2761405622750517,-1.4562205528199672,-5.018281751000881,-1.2794839143753052,1.4979169368743896,0.9707741141319276,0.0
112_Corbin_Ave-2026-04-09_01-07-42,6.471567626953125,-3.622518297231198,-1.5794044494181871,-4.796426175509393,-1.239320993423462,1.352919578552246,0.9383969902992249,0.0
112_Corbin_Ave-2026-04-09_01-07-42,6.481616455078125,-3.578721241080761,-1.6283271780192852,-4.669525596475601,-1.23634934425354,1.1148042678833008,0.8655050992965698,0.0
112_Corbin_Ave-2026-04-09_01-07-42,6.49166455078125,-4.010166492469609,-1.7725515245586632,-5.2949277780830855,-1.237315058708191,0.8729763031005859,0.7834587097167969,0.0
112_Corbin_Ave-2026-04-09_01-07-42,6.50171337890625,-3.9665672969788313,-1.823348814859986,-5.174644279101491,-1.2049193382263184,0.6157698035240173,0.7398262619972229,0.0
112_Corbin_Ave-2026-04-09_01-07-42,6.511762451171875,-3.826007902687788,-1.6555091994553803,-5.433762248277664,-1.1329516172409058,0.358019471168518,0.7423778772354126,0.0
112_Corbin_Ave-2026-04-09_01-07-42,6.5218115234375,-3.7869010501801967,-1.4346534486562013,-5.666393777066469,-1.02252995967865,0.1494509279727935,0.746428906917572,0.0
112_Corbin_Ave-2026-04-09_01-07-42,6.5318603515625,-3.978348043404519,-1.1828472637981176,-5.901375083851814,-0.9017537236213684,0.0173336397856473,0.7205756902694702,0.0
112_Corbin_Ave-2026-04-09_01-07-42,6.541909423828125,-4.225713323205709,-1.0985814191371202,-6.044217620643973,-0.7824066877365112,-0.0832822173833847,0.6635355949401855,0.0
112_Corbin_Ave-2026-04-09_01-07-42,6.55195849609375,-4.347007460534573,-1.093997598478198,-5.974329845425486,-0.6573523879051208,-0.1584392935037613,0.5990508794784546,0.0
112_Corbin_Ave-2026-04-09_01-07-42,6.562007568359375,-4.420905640438199,-0.8919891714900732,-5.960126548027992,-0.5181623101234436,-0.2153904438018798,0.5261617302894592,0.0
112_Corbin_Ave-2026-04-09_01-07-42,6.57205615234375,-4.519461291736364,-0.6767915925830602,-5.8745589731186625,-0.3767305612564087,-0.2970429360866546,0.4405307471752167,0.0
112_Corbin_Ave-2026-04-09_01-07-42,6.58210546875,-4.6243528680577874,-0.5756745663642883,-5.587753955593705,-0.2510898113250732,-0.3850550651550293,0.3283317983150482,0.0
112_Corbin_Ave-2026-04-09_01-07-42,6.592154296875,-4.68476466666162,-0.4921925655573606,-5.32209284838438,-0.1231813877820968,-0.4433183670043945,0.195555105805397,0.0
112_Corbin_Ave-2026-04-09_01-07-42,6.602203369140625,-4.607467491969466,-0.3923685017585754,-5.107197467294335,0.0116265853866934,-0.4929535090923309,0.0542206913232803,0.0
112_Corbin_Ave-2026-04-09_01-07-42,6.612252685546875,-4.335229636718332,-0.2892389666736126,-4.783509703052044,0.1648347824811935,-0.5443714261054993,-0.0750965550541877,0.0
112_Corbin_Ave-2026-04-09_01-07-42,6.62230126953125,-4.017238915073872,-0.145852824524045,-4.454633722516894,0.3215696215629577,-0.6042301058769226,-0.1993227303028106,0.0
112_Corbin_Ave-2026-04-09_01-07-42,6.632350341796875,-3.665412267062068,-0.066979778817296,-3.9487487316936254,0.4547412693500519,-0.667346715927124,-0.3192936182022095,0.0
112_Corbin_Ave-2026-04-09_01-07-42,6.6423994140625,-3.198095491825044,0.0680453622221946,-3.355559843687713,0.5431874394416809,-0.7190957069396973,-0.4191043972969055,0.0
112_Corbin_Ave-2026-04-09_01-07-42,6.652447509765625,-2.613757434272766,0.1301122345566749,-2.704922975319624,0.580991804599762,-0.7551935315132141,-0.4975739121437073,0.0
112_Corbin_Ave-2026-04-09_01-07-42,6.662496337890626,-1.943100837313384,0.1161293019115924,-2.083890094837546,0.5895857214927673,-0.7653042078018188,-0.5267674922943115,0.0
112_Corbin_Ave-2026-04-09_01-07-42,6.67254541015625,-1.267184127868712,0.1459586229860782,-1.4916022473245858,0.5860288143157959,-0.7574907541275024,-0.5138234496116638,0.0
112_Corbin_Ave-2026-04-09_01-07-42,6.682594238281251,-0.8225323350347578,0.1396364342272281,-1.0067726117506623,0.5664991140365601,-0.7266492247581482,-0.4958335161209106,0.0
112_Corbin_Ave-2026-04-09_01-07-42,6.6926435546875,-0.719143564491719,0.0504097522884607,-0.5994760054513811,0.5246955156326294,-0.6678748726844788,-0.5096257925033569,0.0
112_Corbin_Ave-2026-04-09_01-07-42,6.702692138671876,-0.8137317734636366,-0.0669119742780923,-0.3673682082757353,0.4734104871749878,-0.5973944067955017,-0.5599105358123779,0.0
112_Corbin_Ave-2026-04-09_01-07-42,6.712741210937501,-0.7181818798527121,-0.010869184538722,-0.2178656290724873,0.4301594197750091,-0.5774006843566895,-0.6236202716827393,0.0
112_Corbin_Ave-2026-04-09_01-07-42,6.72279052734375,-0.420368561579287,0.0826554868549108,-0.0637993952155113,0.4004706144332886,-0.6138744950294495,-0.6930283308029175,0.0
112_Corbin_Ave-2026-04-09_01-07-42,6.732839355468751,-0.1228160861991345,0.0759106887698173,0.0179494981884956,0.3935125768184662,-0.6550706624984741,-0.7565622925758362,0.0
112_Corbin_Ave-2026-04-09_01-07-42,6.742888427734375,0.1851820876106619,0.0626689298808574,-0.0516144519031047,0.4179147779941559,-0.685987651348114,-0.7997229695320129,0.0
112_Corbin_Ave-2026-04-09_01-07-42,6.7529375,0.561089722303301,-0.0640671062409877,-0.092023034659028,0.4686408042907715,-0.6972112655639648,-0.8173898458480835,0.0
112_Corbin_Ave-2026-04-09_01-07-42,6.762986328125001,0.9756645029120148,-0.2061824978023767,-0.1050777465432882,0.539724588394165,-0.6509929895401001,-0.7945282459259033,0.0
112_Corbin_Ave-2026-04-09_01-07-42,6.773035400390626,1.422824186913669,-0.2316197213977575,-0.020259528696537,0.6081063151359558,-0.5520131587982178,-0.7257561087608337,0.0
112_Corbin_Ave-2026-04-09_01-07-42,6.78308447265625,1.7376462153941392,-0.151373049250245,0.1792687719136476,0.647014856338501,-0.4297153949737549,-0.6356940269470215,0.0
112_Corbin_Ave-2026-04-09_01-07-42,6.793133544921875,1.9030404834732413,-0.0737438661247491,0.4991401927381753,0.6347358226776123,-0.3008000254631042,-0.5609662532806396,0.0
112_Corbin_Ave-2026-04-09_01-07-42,6.8031826171875,1.8125570794716477,-0.0535129790008068,0.7781868512213229,0.5737078785896301,-0.1808084994554519,-0.5181825160980225,0.0
112_Corbin_Ave-2026-04-09_01-07-42,6.8132314453125,1.6095071806065735,-0.066149757733941,0.9611334348648786,0.4940284788608551,-0.0950469821691513,-0.4990830719470978,0.0
112_Corbin_Ave-2026-04-09_01-07-42,6.823280273437501,1.5010644876748322,-0.0147889883309602,0.881869928535819,0.4254911839962005,-0.0410420522093772,-0.5117970108985901,0.0
112_Corbin_Ave-2026-04-09_01-07-42,6.8333286132812505,1.4282231233477591,0.0321370134949684,0.6345154623895883,0.4037419259548187,-0.067116267979145,-0.5431230068206787,0.0
112_Corbin_Ave-2026-04-09_01-07-42,6.843377197265625,1.4614344880759715,0.0591442628860473,0.4009890305876731,0.444138616323471,-0.1429695338010788,-0.5663098692893982,0.0
112_Corbin_Ave-2026-04-09_01-07-42,6.8534265136718755,1.568895330363512,0.104436526030302,0.1493809986501932,0.5381788015365601,-0.2033647000789642,-0.5499923825263977,0.0
112_Corbin_Ave-2026-04-09_01-07-42,6.8634753417968755,1.661848193218559,0.140199913328886,0.0588303746312856,0.6299425363540649,-0.2176675498485565,-0.4963443875312805,0.0
112_Corbin_Ave-2026-04-09_01-07-42,6.873524902343751,1.71777758571133,0.130634212604165,0.2625613876283169,0.6784890294075012,-0.2135513722896576,-0.4302111566066742,0.0
112_Corbin_Ave-2026-04-09_01-07-42,6.887343017578125,1.6942631468720732,0.1592921518117189,1.066589367070794,0.629560112953186,-0.1994735598564148,-0.3254830837249756,0.0
112_Corbin_Ave-2026-04-09_01-07-42,6.89739208984375,1.5816192028582094,0.1910404582500457,1.4279963288545607,0.5250601172447205,-0.2140169590711593,-0.24192975461483,0.0
112_Corbin_Ave-2026-04-09_01-07-42,6.90743994140625,1.2995838839530944,0.193552148810029,1.6529811422824858,0.3779164850711822,-0.2432661950588226,-0.1582425832748413,0.0
112_Corbin_Ave-2026-04-09_01-07-42,6.917489013671875,0.9005276480589062,0.1329535954624414,1.6229695965088904,0.2192363291978836,-0.2630692720413208,-0.0898196697235107,0.0
112_Corbin_Ave-2026-04-09_01-07-42,6.927537841796875,0.4621774395871907,0.0659738166451454,1.483563902297616,0.0686998292803764,-0.282859206199646,-0.0416388325393199,0.0
112_Corbin_Ave-2026-04-09_01-07-42,6.937587158203125,0.1404579797431826,0.1706178479462862,1.1828472637981176,-0.0469590313732624,-0.3033702075481415,-0.0053443112410604,0.0
112_Corbin_Ave-2026-04-09_01-07-42,6.94763623046875,-0.1044818264767527,0.3175648974478244,0.854204507496953,-0.1146235615015029,-0.350559800863266,0.0156552474945783,0.0
112_Corbin_Ave-2026-04-09_01-07-42,6.957684814453125,-0.4007489382214844,0.3829033387988805,0.5588543644666671,-0.1447477787733078,-0.4026131629943847,0.0173399448394775,0.0
112_Corbin_Ave-2026-04-09_01-07-42,6.967734130859375,-0.676316376286745,0.3358709539890289,0.3759042736917733,-0.1543215662240982,-0.4561349749565124,0.0062998118810355,0.0
112_Corbin_Ave-2026-04-09_01-07-42,6.977782958984375,-0.9168000798806548,0.2919938183397054,0.2054810715347528,-0.1504183560609817,-0.4636210203170776,-0.0092500196769833,0.0
112_Corbin_Ave-2026-04-09_01-07-42,6.98783203125,-1.2343322441026567,0.2091384249985217,0.0467106055095791,-0.1372056156396865,-0.4335528910160064,-0.0426109060645103,0.0
112_Corbin_Ave-2026-04-09_01-07-42,6.997881103515625,-1.571317881335318,0.1422258661985397,-0.1370838271349668,-0.1106960400938987,-0.3647144734859466,-0.1003594547510147,0.0
112_Corbin_Ave-2026-04-09_01-07-42,7.007929931640625,-1.800394640251994,0.1104606086254119,-0.3746957746848464,-0.0571947395801544,-0.2836805880069732,-0.1778702288866043,0.0
